PKT_ID,UTC_TIME,IRTIFA_M,BASINC_HPA,SICAKLIK_C,AX,AY,AZ,GX,GY,GZ,PUSULA_DEG,GERILIM_V,AKIM_MA,GUC_MW
1,2026-09-23 21:37:47,820.04,918.55,23.34,-0.08,-0.02,1.16,3.4,6.2,0.2,319.1,4.84,-0.4,-1.9
2,2026-09-23 21:37:48,820.06,918.55,23.38,-0.07,0.00,1.16,3.0,5.1,-0.5,351.9,4.85,-0.3,-1.5
3,2026-09-23 21:37:48,820.02,918.56,23.38,-0.07,0.00,1.16,3.1,5.2,-0.7,351.3,4.84,-0.4,-1.9
4,2026-09-23 21:37:48,820.06,918.55,23.39,-0.07,0.01,1.16,3.1,5.8,-0.6,352.2,4.84,-0.3,-1.5
5,2026-09-23 21:37:48,820.04,918.55,23.39,-0.07,0.01,1.16,2.9,5.7,-1.0,352.0,4.84,-0.3,-1.5
6,2026-09-23 21:37:48,820.07,918.55,23.39,-0.07,0.00,1.17,2.9,4.9,-0.6,351.3,4.84,-0.3,-1.5
7,2026-09-23 21:37:49,820.03,918.56,23.39,-0.08,0.00,1.16,3.0,5.1,-0.8,351.6,4.84,-0.2,-1.0
8,2026-09-23 21:37:49,820.06,918.55,23.40,-0.07,0.00,1.16,3.0,5.4,-0.6,351.9,4.85,-0.3,-1.5
9,2026-09-23 21:37:49,820.10,918.55,23.40,-0.06,0.00,1.16,3.0,5.0,-0.8,352.1,4.84,-0.2,-1.0
10,2026-09-23 21:37:49,820.12,918.54,23.40,-0.07,0.00,1.16,3.0,5.4,-0.6,352.1,4.84,-0.4,-1.9
11,2026-09-23 21:37:50,820.08,918.55,23.41,-0.07,0.01,1.16,2.8,5.0,-0.9,351.8,4.84,-0.4,-1.9
12,2026-09-23 21:37:50,820.17,918.54,23.40,-0.07,0.00,1.16,2.8,5.4,-1.0,352.4,4.84,-0.3,-1.5
13,2026-09-23 21:37:50,819.99,918.56,23.41,-0.07,0.01,1.16,2.8,5.2,-0.8,351.6,4.84,-0.1,-0.5
14,2026-09-23 21:37:50,820.09,918.55,23.40,-0.07,0.00,1.16,3.0,5.1,-0.7,351.9,4.84,-0.3,-1.5
15,2026-09-23 21:37:50,820.16,918.54,23.41,-0.07,0.01,1.17,3.0,5.3,-0.7,351.7,4.84,-0.1,-0.5
16,2026-09-23 21:37:51,820.09,918.55,23.41,-0.07,0.01,1.16,3.1,5.0,-0.9,352.9,4.84,-0.1,-0.5
17,2026-09-23 21:37:51,820.02,918.56,23.41,-0.07,0.00,1.16,3.0,5.3,-0.9,351.2,4.84,-0.4,-1.9
18,2026-09-23 21:37:51,820.17,918.54,23.41,-0.07,0.01,1.15,2.8,5.0,-1.0,351.3,4.84,-0.3,-1.5
19,2026-09-23 21:37:51,819.99,918.56,23.42,-0.07,0.01,1.16,3.1,5.2,-0.7,352.1,4.84,-0.5,-2.4
1,2026-09-23 21:38:08,820.04,918.55,23.43,-0.07,0.00,1.16,3.2,5.1,-1.0,312.9,4.84,-0.4,-1.9
2,2026-09-23 21:38:08,820.10,918.55,23.43,-0.07,0.01,1.17,2.7,5.1,-0.8,351.1,4.84,-0.3,-1.5
3,2026-09-23 21:38:08,820.01,918.56,23.43,-0.07,0.01,1.16,3.1,5.1,-1.0,350.9,4.84,-0.3,-1.5
4,2026-09-23 21:38:08,820.05,918.55,23.44,-0.07,0.00,1.16,2.9,5.0,-0.9,351.8,4.85,-0.3,-1.5
5,2026-09-23 21:38:08,820.06,918.55,23.44,-0.08,0.01,1.16,2.9,5.2,-0.7,351.9,4.84,-0.2,-1.0
6,2026-09-23 21:38:09,819.98,918.56,23.45,-0.07,0.01,1.16,3.3,5.0,-0.9,351.0,4.84,-0.1,-0.5
7,2026-09-23 21:38:09,819.97,918.56,23.44,-0.07,0.00,1.17,3.0,5.2,-0.9,351.6,4.85,-0.3,-1.5
8,2026-09-23 21:38:09,820.04,918.55,23.44,-0.08,0.01,1.16,2.9,4.8,-0.8,352.2,4.84,-0.1,-0.5
9,2026-09-23 21:38:09,820.03,918.55,23.44,-0.07,0.00,1.16,3.0,5.0,-0.7,352.1,4.84,0.0,0.0
10,2026-09-23 21:38:10,820.10,918.55,23.46,-0.07,0.01,1.16,3.0,4.8,-0.8,352.1,4.85,0.0,0.0
11,2026-09-23 21:38:10,820.00,918.56,23.45,-0.07,0.00,1.16,2.9,5.2,-0.6,351.9,4.84,-0.3,-1.5
12,2026-09-23 21:38:10,820.04,918.55,23.44,-0.07,0.01,1.16,3.0,5.0,-0.8,351.8,4.85,-0.2,-1.0
13,2026-09-23 21:38:10,820.06,918.55,23.45,-0.08,0.00,1.18,3.0,5.3,-0.7,351.2,4.84,-0.1,-0.5
14,2026-09-23 21:38:10,820.04,918.55,23.43,-0.07,0.00,1.15,3.0,5.1,-0.7,351.3,4.84,-0.1,-0.5
15,2026-09-23 21:38:11,820.03,918.56,23.43,-0.07,0.01,1.16,2.9,5.0,-1.1,350.8,4.84,-0.1,-0.5
16,2026-09-23 21:38:11,820.05,918.55,23.45,-0.07,0.01,1.16,3.0,5.1,-0.9,351.8,4.85,-0.4,-1.9
17,2026-09-23 21:38:11,820.02,918.56,23.44,-0.08,0.01,1.17,2.9,5.1,-0.8,351.9,4.84,-0.3,-1.5
18,2026-09-23 21:38:11,820.01,918.56,23.44,-0.07,0.01,1.16,3.0,5.2,-1.0,351.5,4.85,-0.3,-1.5
19,2026-09-23 21:38:12,820.05,918.55,23.44,-0.07,0.01,1.16,2.9,5.2,-0.9,351.0,4.84,-0.4,-1.9
20,2026-09-23 21:38:12,820.02,918.56,23.43,-0.07,0.01,1.16,3.0,5.3,-0.3,351.4,4.85,0.0,0.0
21,2026-09-23 21:38:12,820.02,918.56,23.45,-0.07,0.01,1.16,2.9,5.1,-0.9,351.2,4.84,0.0,0.0
22,2026-09-23 21:38:12,819.99,918.56,23.45,-0.07,0.01,1.16,2.9,4.9,-0.9,351.3,4.85,-0.1,-0.5
23,2026-09-23 21:38:12,820.01,918.56,23.45,-0.07,0.01,1.16,3.1,5.1,-0.8,351.4,4.84,-0.3,-1.5
24,2026-09-23 21:38:13,820.02,918.56,23.45,-0.07,0.01,1.16,2.9,5.0,-0.8,351.9,4.84,-0.3,-1.5
25,2026-09-23 21:38:13,820.02,918.56,23.44,-0.07,0.00,1.16,2.9,5.2,-0.4,351.9,4.84,-0.3,-1.5
26,2026-09-23 21:38:13,820.08,918.55,23.45,-0.07,0.01,1.16,3.3,5.1,-0.9,350.9,4.85,-0.3,-1.5
27,2026-09-23 21:38:13,820.04,918.55,23.45,-0.07,0.00,1.16,2.8,5.1,-0.6,350.5,4.84,-0.1,-0.5
28,2026-09-23 21:38:14,819.98,918.56,23.45,-0.07,0.01,1.16,2.9,5.2,-0.9,351.6,4.85,-0.3,-1.5
29,2026-09-23 21:38:14,820.08,918.55,23.44,-0.07,0.01,1.16,3.1,5.0,-0.8,350.9,4.84,-0.2,-1.0
30,2026-09-23 21:38:14,819.95,918.56,23.45,-0.07,0.01,1.16,3.0,4.9,-0.9,351.5,4.85,-0.4,-1.9
1,2026-09-23 21:44:32,819.74,918.59,23.40,-0.08,0.00,1.16,2.9,5.4,-0.7,317.4,4.84,-0.4,-1.9
2,2026-09-23 21:44:32,819.75,918.59,23.44,-0.08,0.00,1.16,3.0,5.7,-0.8,349.2,4.85,-0.3,-1.5
3,2026-09-23 21:44:32,819.71,918.59,23.44,-0.09,0.01,1.15,3.1,5.6,-0.6,349.6,4.84,0.1,0.5
4,2026-09-23 21:44:33,819.74,918.59,23.45,-0.09,0.01,1.16,3.2,5.3,-0.9,349.9,4.85,-0.4,-1.9
5,2026-09-23 21:44:33,819.72,918.59,23.46,-0.09,0.01,1.16,2.9,5.2,-0.8,349.9,4.84,-0.3,-1.5
6,2026-09-23 21:44:33,819.75,918.59,23.45,-0.09,0.01,1.16,3.3,5.4,-0.8,349.2,4.84,-0.2,-1.0
7,2026-09-23 21:44:33,819.79,918.58,23.46,-0.09,0.01,1.15,2.9,5.2,-1.0,350.1,4.84,-0.3,-1.5
8,2026-09-23 21:44:33,819.72,918.59,23.46,-0.09,0.01,1.16,3.1,5.2,-0.7,349.5,4.85,0.0,0.0
9,2026-09-23 21:44:34,819.70,918.59,23.46,-0.08,0.00,1.16,3.0,5.4,-1.0,349.6,4.84,-0.3,-1.5
10,2026-09-23 21:44:34,819.73,918.59,23.46,-0.08,0.00,1.16,3.1,5.1,-0.6,350.5,4.84,-0.2,-1.0
11,2026-09-23 21:44:34,819.70,918.59,23.45,-0.08,0.01,1.16,2.9,5.3,-0.6,350.2,4.84,-0.2,-1.0
12,2026-09-23 21:44:34,819.75,918.59,23.46,-0.09,0.01,1.16,3.0,5.1,-0.9,349.9,4.85,-0.3,-1.5
13,2026-09-23 21:44:35,819.70,918.59,23.47,-0.08,0.00,1.16,3.1,5.1,-0.7,349.7,4.84,-0.3,-1.5
14,2026-09-23 21:44:35,819.69,918.59,23.46,-0.08,0.01,1.16,2.9,5.4,-0.8,349.4,4.85,-0.3,-1.5
15,2026-09-23 21:44:35,819.73,918.59,23.46,-0.08,0.01,1.16,3.1,5.0,-0.9,349.5,4.84,-0.1,-0.5
16,2026-09-23 21:44:35,819.69,918.59,23.46,-0.08,0.01,1.16,2.8,5.1,-0.7,349.2,4.85,-0.1,-0.5
17,2026-09-23 21:44:35,819.69,918.59,23.45,-0.08,0.00,1.16,3.1,5.1,-0.6,350.3,4.84,-0.2,-1.0
18,2026-09-23 21:44:36,819.77,918.58,23.46,-0.09,0.01,1.16,3.0,5.3,-0.7,349.9,4.85,-0.2,-1.0
19,2026-09-23 21:44:36,819.72,918.59,23.46,-0.08,0.00,1.16,2.9,5.3,-0.6,350.3,4.84,-0.3,-1.5
20,2026-09-23 21:44:36,819.82,918.58,23.47,-0.08,0.00,1.15,3.0,4.9,-1.0,349.2,4.85,-0.2,-1.0
21,2026-09-23 21:44:36,819.73,918.59,23.47,-0.09,0.01,1.16,2.9,5.2,-0.7,350.3,4.84,-0.1,-0.5
22,2026-09-23 21:44:37,819.72,918.59,23.46,-0.08,0.01,1.16,2.9,5.2,-0.8,349.6,4.84,-0.3,-1.5
23,2026-09-23 21:44:37,819.74,918.59,23.47,-0.09,0.01,1.16,3.0,5.4,-0.9,350.3,4.84,0.0,0.0
24,2026-09-23 21:44:37,819.77,918.58,23.46,-0.08,0.01,1.16,3.1,5.2,-0.8,349.2,4.84,-0.2,-1.0
1,2026-09-23 21:44:57,819.71,918.59,23.50,-0.09,0.01,1.16,2.9,5.5,-1.0,318.8,4.84,-0.2,-1.0
2,2026-09-23 21:44:57,819.70,918.59,23.49,-0.09,0.01,1.16,2.9,5.1,-0.9,350.0,4.84,-0.2,-1.0
3,2026-09-23 21:44:57,819.62,918.60,23.50,-0.09,0.01,1.16,3.2,5.0,-0.9,350.7,4.84,0.0,0.0
4,2026-09-23 21:44:57,819.68,918.59,23.50,-0.09,0.01,1.16,3.1,5.3,-0.8,350.0,4.85,-0.1,-0.5
5,2026-09-23 21:44:58,819.72,918.59,23.49,-0.09,0.01,1.16,2.9,5.1,-0.9,351.1,4.84,-0.3,-1.5
6,2026-09-23 21:44:58,819.65,918.60,23.49,-0.08,0.01,1.16,3.1,4.9,-1.0,350.7,4.85,-0.3,-1.5
7,2026-09-23 21:44:58,819.72,918.59,23.49,-0.09,0.01,1.16,3.0,5.4,-0.9,350.1,4.84,-0.1,-0.5
8,2026-09-23 21:44:58,819.69,918.59,23.50,-0.09,0.00,1.16,3.2,5.2,-1.0,350.9,4.85,-0.2,-1.0
9,2026-09-23 21:44:59,819.74,918.59,23.50,-0.09,0.01,1.16,2.8,5.1,-1.0,350.6,4.84,-0.3,-1.5
10,2026-09-23 21:44:59,819.77,918.58,23.49,-0.09,0.01,1.16,2.9,5.2,-1.0,350.7,4.84,-0.5,-2.4
11,2026-09-23 21:44:59,819.75,918.59,23.49,-0.09,0.01,1.16,3.2,4.9,-0.9,350.1,4.84,-0.1,-0.5
12,2026-09-23 21:44:59,819.72,918.59,23.50,-0.09,0.01,1.16,3.1,5.2,-0.8,350.4,4.85,-0.1,-0.5
13,2026-09-23 21:44:59,819.69,918.59,23.50,-0.09,0.01,1.16,3.0,5.4,-1.0,350.5,4.84,-0.4,-1.9
14,2026-09-23 21:45:00,819.78,918.58,23.50,-0.09,0.01,1.16,2.8,5.4,-0.8,350.1,4.84,-0.3,-1.5
15,2026-09-23 21:45:00,819.71,918.59,23.49,-0.09,0.01,1.16,3.1,5.0,-0.7,349.6,4.84,-0.3,-1.5
16,2026-09-23 21:45:00,819.72,918.59,23.51,-0.09,0.01,1.16,3.1,4.8,-0.7,350.5,4.85,-0.2,-1.0
17,2026-09-23 21:45:00,819.69,918.59,23.50,-0.09,0.01,1.16,2.9,5.4,-1.0,350.5,4.84,-0.4,-1.9
18,2026-09-23 21:45:01,819.70,918.59,23.51,-0.09,0.01,1.16,3.3,5.3,-0.8,350.5,4.85,-0.4,-1.9
19,2026-09-23 21:45:01,819.73,918.59,23.50,-0.09,0.01,1.16,3.1,5.3,-0.9,350.1,4.84,-0.1,-0.5
20,2026-09-23 21:45:01,819.68,918.59,23.51,-0.09,0.01,1.16,2.7,5.3,-0.8,350.6,4.84,-0.2,-1.0
21,2026-09-23 21:45:01,819.73,918.59,23.51,-0.09,0.01,1.16,3.1,4.6,-1.2,349.9,4.84,0.0,0.0
22,2026-09-23 21:45:01,819.67,918.60,23.51,-0.09,0.01,1.16,3.0,4.9,-0.9,349.8,4.85,-0.4,-1.9
23,2026-09-23 21:45:02,819.66,918.60,23.51,-0.09,0.01,1.16,3.2,5.2,-0.8,350.5,4.84,-0.4,-1.9
24,2026-09-23 21:45:02,819.75,918.59,23.50,-0.09,0.01,1.16,3.2,5.0,-0.9,349.3,4.85,-0.1,-0.5
25,2026-09-23 21:45:02,819.68,918.59,23.51,-0.08,0.01,1.16,3.1,5.1,-1.1,350.6,4.84,-0.1,-0.5
26,2026-09-23 21:45:02,819.65,918.60,23.52,-0.09,0.01,1.16,2.8,5.5,-0.7,349.9,4.84,-0.3,-1.5
27,2026-09-23 21:45:03,819.65,918.60,23.51,-0.09,0.01,1.16,3.0,5.0,-0.9,350.8,4.84,-0.3,-1.5
28,2026-09-23 21:45:03,819.69,918.59,23.51,-0.09,0.00,1.16,3.2,5.2,-0.9,350.4,4.85,0.0,0.0
29,2026-09-23 21:45:03,819.65,918.60,23.51,-0.09,0.01,1.16,2.8,4.9,-1.1,350.0,4.84,-0.2,-1.0
30,2026-09-23 21:45:03,819.71,918.59,23.51,-0.09,0.01,1.16,2.9,5.2,-0.8,350.3,4.85,-0.4,-1.9
31,2026-09-23 21:45:03,819.66,918.60,23.51,-0.09,0.00,1.16,2.8,5.1,-0.8,349.7,4.84,-0.5,-2.4
32,2026-09-23 21:45:04,819.68,918.59,23.50,-0.09,0.01,1.16,2.9,5.0,-1.0,349.5,4.84,-0.2,-1.0
33,2026-09-23 21:45:04,819.68,918.59,23.50,-0.09,0.01,1.16,3.1,5.0,-0.9,349.6,4.84,-0.2,-1.0
34,2026-09-23 21:45:04,819.71,918.59,23.51,-0.09,0.01,1.16,3.0,5.2,-1.0,350.3,4.85,-0.1,-0.5
35,2026-09-23 21:45:04,819.70,918.59,23.50,-0.09,0.01,1.15,2.8,5.4,-0.7,349.8,4.84,-0.1,-0.5
36,2026-09-23 21:45:05,819.68,918.59,23.51,-0.09,0.01,1.16,3.1,5.2,-0.9,349.7,4.84,-0.1,-0.5
37,2026-09-23 21:45:05,819.61,918.60,23.51,-0.09,0.01,1.16,3.0,5.1,-1.1,349.8,4.84,-0.4,-1.9
38,2026-09-23 21:45:05,819.71,918.59,23.51,-0.09,0.01,1.16,2.9,5.0,-1.0,350.0,4.84,-0.2,-1.0
39,2026-09-23 21:45:05,819.72,918.59,23.50,-0.09,0.01,1.16,3.1,5.1,-0.9,349.3,4.84,0.0,0.0
40,2026-09-23 21:45:05,819.68,918.59,23.52,-0.09,0.01,1.16,3.0,5.2,-0.9,350.2,4.84,0.0,0.0
41,2026-09-23 21:45:06,819.63,918.60,23.51,-0.09,0.01,1.16,3.1,5.5,-0.7,350.0,4.84,-0.2,-1.0
42,2026-09-23 21:45:06,819.69,918.59,23.51,-0.09,0.01,1.16,2.9,5.5,-0.6,349.7,4.84,-0.4,-1.9
43,2026-09-23 21:45:06,819.70,918.59,23.51,-0.09,0.00,1.15,3.1,5.0,-0.8,349.9,4.84,-0.1,-0.5
44,2026-09-23 21:45:06,819.71,918.59,23.52,-0.09,0.00,1.16,2.8,5.1,-0.7,350.1,4.84,-0.4,-1.9
45,2026-09-23 21:45:07,819.69,918.59,23.51,-0.09,0.01,1.16,2.9,5.1,-1.1,350.3,4.84,-0.4,-1.9
46,2026-09-23 21:45:07,819.63,918.60,23.52,-0.09,0.00,1.16,2.9,4.9,-0.7,349.8,4.85,-0.2,-1.0
47,2026-09-23 21:45:07,819.63,918.60,23.51,-0.08,0.01,1.16,3.1,5.1,-0.9,350.1,4.84,-0.5,-2.4
48,2026-09-23 21:45:07,819.67,918.60,23.51,-0.09,0.01,1.16,3.0,5.2,-0.9,350.4,4.84,-0.5,-2.4
49,2026-09-23 21:45:07,819.62,918.60,23.51,-0.09,0.01,1.16,3.0,5.3,-0.9,349.7,4.84,-0.1,-0.5
50,2026-09-23 21:45:08,819.67,918.60,23.50,-0.09,0.01,1.16,3.1,5.0,-0.7,349.4,4.84,-0.3,-1.5
51,2026-09-23 21:45:08,819.68,918.59,23.51,-0.09,0.01,1.16,2.9,5.1,-1.1,349.9,4.84,0.0,0.0
52,2026-09-23 21:45:08,819.63,918.60,23.52,-0.09,0.01,1.16,3.0,5.0,-0.7,349.8,4.85,-0.4,-1.9
53,2026-09-23 21:45:08,819.69,918.59,23.52,-0.09,0.01,1.15,2.9,5.3,-0.9,350.1,4.84,-0.1,-0.5
54,2026-09-23 21:45:09,819.63,918.60,23.51,-0.09,0.01,1.16,2.8,5.1,-1.0,350.1,4.85,-0.3,-1.5
55,2026-09-23 21:45:09,819.61,918.60,23.52,-0.09,0.01,1.16,3.1,5.4,-1.0,349.7,4.85,-0.5,-2.4
56,2026-09-23 21:45:09,819.62,918.60,23.51,-0.09,0.01,1.16,3.1,4.9,-0.8,349.9,4.84,-0.3,-1.5
57,2026-09-23 21:45:09,819.65,918.60,23.51,-0.09,0.01,1.15,2.9,5.0,-0.9,350.3,4.84,-0.2,-1.0
58,2026-09-23 21:45:10,819.67,918.59,23.51,-0.09,0.01,1.16,3.0,5.3,-0.8,350.1,4.85,0.1,0.5
59,2026-09-23 21:45:10,819.70,918.59,23.51,-0.09,0.01,1.16,2.9,5.3,-0.6,350.4,4.84,-0.4,-1.9
60,2026-09-23 21:45:10,819.63,918.60,23.51,-0.09,0.00,1.16,3.0,5.4,-0.8,349.9,4.84,-0.1,-0.5
61,2026-09-23 21:45:10,819.72,918.59,23.52,-0.09,0.01,1.16,2.9,4.9,-1.1,350.5,4.84,-0.1,-0.5
62,2026-09-23 21:45:10,819.57,918.61,23.51,-0.09,0.01,1.16,3.1,4.9,-0.6,350.2,4.84,0.0,0.0
63,2026-09-23 21:45:11,819.62,918.60,23.51,-0.09,0.01,1.16,3.1,5.1,-1.0,349.9,4.84,-0.1,-0.5
64,2026-09-23 21:45:11,819.55,918.61,23.51,-0.09,0.01,1.16,2.8,5.0,-0.8,349.6,4.85,-0.5,-2.4
65,2026-09-23 21:45:11,819.57,918.61,23.51,-0.09,0.01,1.17,2.8,5.0,-0.9,350.0,4.84,-0.5,-2.4
66,2026-09-23 21:45:11,819.55,918.61,23.51,-0.09,0.01,1.16,3.1,5.0,-0.6,349.2,4.85,0.0,0.0
67,2026-09-23 21:45:12,819.61,918.60,23.51,-0.09,0.01,1.16,2.8,5.2,-0.9,349.9,4.84,-0.1,-0.5
68,2026-09-23 21:45:12,819.59,918.60,23.51,-0.09,0.01,1.16,3.1,4.9,-0.8,350.5,4.85,-0.1,-0.5
69,2026-09-23 21:45:12,819.57,918.61,23.50,-0.09,0.01,1.16,2.9,5.1,-0.8,350.5,4.84,-0.2,-1.0
70,2026-09-23 21:45:12,819.59,918.60,23.51,-0.09,0.01,1.16,2.8,5.1,-0.8,349.9,4.85,-0.3,-1.5
71,2026-09-23 21:45:12,819.65,918.60,23.50,-0.08,0.01,1.16,3.0,5.1,-0.8,350.8,4.84,-0.4,-1.9
72,2026-09-23 21:45:13,819.57,918.61,23.51,-0.09,0.00,1.16,3.0,5.0,-0.7,350.7,4.85,-0.2,-1.0
73,2026-09-23 21:45:13,819.62,918.60,23.51,-0.09,0.01,1.15,2.9,5.3,-1.0,350.3,4.84,0.0,0.0
74,2026-09-23 21:45:13,819.54,918.61,23.52,-0.09,0.01,1.15,3.1,4.9,-0.7,350.6,4.84,-0.5,-2.4
75,2026-09-23 21:45:13,819.61,918.60,23.51,-0.08,0.00,1.16,3.1,5.1,-0.9,350.1,4.84,-0.2,-1.0
76,2026-09-23 21:45:14,819.58,918.61,23.51,-0.09,0.01,1.17,2.8,4.4,-0.6,351.0,4.85,0.1,0.5
77,2026-09-23 21:45:14,819.56,918.61,23.51,-0.09,0.01,1.16,3.2,5.1,-0.6,350.6,4.84,-0.2,-1.0
78,2026-09-23 21:45:14,819.59,918.60,23.51,-0.09,0.01,1.16,3.4,5.1,-0.9,350.8,4.84,-0.2,-1.0
79,2026-09-23 21:45:14,819.59,918.60,23.51,-0.08,0.00,1.14,2.4,5.1,-1.0,349.6,4.84,-0.2,-1.0
80,2026-09-23 21:45:14,819.60,918.60,23.52,-0.09,0.00,1.14,1.2,4.7,-1.1,350.6,4.84,-0.5,-2.4
81,2026-09-23 21:45:15,819.57,918.61,23.52,-0.09,-0.00,1.16,2.7,4.9,-0.8,350.7,4.84,-0.3,-1.5
82,2026-09-23 21:45:15,819.56,918.61,23.50,-0.09,-0.00,1.15,2.9,5.2,-0.9,350.3,4.85,-0.5,-2.4
83,2026-09-23 21:45:15,819.53,918.61,23.52,-0.09,-0.00,1.16,2.8,5.3,-0.8,349.9,4.54,-277.9,-1261.7
84,2026-09-23 21:45:15,819.57,918.61,23.51,-0.09,0.00,1.16,2.8,5.0,-0.7,349.6,4.55,-269.1,-1224.9
85,2026-09-23 21:45:16,819.56,918.61,23.51,-0.09,0.00,1.15,3.0,5.0,-0.8,349.8,4.55,-267.2,-1216.3
86,2026-09-23 21:45:16,819.57,918.61,23.52,-0.09,0.00,1.16,3.1,5.0,-0.8,350.6,4.55,-267.4,-1217.2
87,2026-09-23 21:45:16,819.57,918.61,23.51,-0.09,0.00,1.16,3.1,4.9,-0.8,349.7,4.54,-278.4,-1262.8
88,2026-09-23 21:45:16,819.60,918.60,23.51,-0.09,0.00,1.15,3.0,5.0,-0.7,349.5,4.54,-284.5,-1290.5
89,2026-09-23 21:45:16,819.46,918.62,23.51,-0.09,0.00,1.16,2.9,5.2,-0.9,349.5,4.54,-278.0,-1262.1
90,2026-09-23 21:45:17,819.56,918.61,23.52,-0.09,0.00,1.16,2.9,5.1,-0.9,349.5,4.54,-278.0,-1263.2
91,2026-09-23 21:45:17,819.51,918.61,23.52,-0.09,0.00,1.16,3.1,5.0,-0.9,349.8,4.54,-278.0,-1263.2
92,2026-09-23 21:45:17,819.60,918.60,23.50,-0.09,0.00,1.16,3.0,5.1,-1.1,349.8,4.54,-279.3,-1269.1
93,2026-09-23 21:45:17,819.59,918.60,23.51,-0.09,0.00,1.16,2.9,4.9,-0.9,349.6,4.54,-279.7,-1269.8
94,2026-09-23 21:45:18,819.61,918.60,23.51,-0.09,0.00,1.16,3.3,5.5,-0.9,349.1,4.54,-282.4,-1282.1
95,2026-09-23 21:45:18,819.53,918.61,23.52,-0.09,0.01,1.15,4.0,5.4,-0.6,349.9,4.55,-273.6,-1244.3
96,2026-09-23 21:45:18,819.55,918.61,23.52,-0.09,0.01,1.16,3.4,5.1,-0.9,349.2,4.54,-285.4,-1294.6
97,2026-09-23 21:45:18,819.56,918.61,23.52,-0.09,0.01,1.16,3.2,5.4,-1.9,349.9,4.53,-290.8,-1317.9
98,2026-09-23 21:45:18,819.56,918.61,23.51,-0.09,0.01,1.18,2.5,5.1,-0.9,348.8,4.54,-284.9,-1293.4
99,2026-09-23 21:45:19,819.56,918.61,23.52,-0.09,0.01,1.15,2.9,4.9,-0.8,348.9,4.53,-289.3,-1311.1
100,2026-09-23 21:45:19,819.52,918.61,23.51,-0.08,0.00,1.15,3.2,4.9,-0.8,349.8,4.53,-291.0,-1317.6
101,2026-09-23 21:45:19,819.52,918.61,23.51,-0.09,0.00,1.16,3.0,5.4,-1.0,349.2,4.53,-291.3,-1320.2
102,2026-09-23 21:45:19,819.55,918.61,23.52,-0.09,0.00,1.16,3.1,5.4,-0.9,350.0,4.53,-292.2,-1324.3
103,2026-09-23 21:45:20,819.53,918.61,23.52,-0.09,0.01,1.16,2.7,5.3,-0.7,350.2,4.53,-291.2,-1318.6
104,2026-09-23 21:45:20,819.59,918.60,23.51,-0.09,0.01,1.16,2.9,4.9,-0.9,349.9,4.53,-292.5,-1324.4
105,2026-09-23 21:45:20,819.46,918.62,23.52,-0.09,0.00,1.16,2.8,5.2,-0.9,350.1,4.53,-291.8,-1321.3
106,2026-09-23 21:45:20,819.55,918.61,23.52,-0.09,0.01,1.16,3.0,5.3,-0.9,349.6,4.53,-292.4,-1325.2
107,2026-09-23 21:45:21,819.54,918.61,23.51,-0.09,0.01,1.16,3.1,5.3,-0.7,349.4,4.53,-291.6,-1320.4
108,2026-09-23 21:45:21,819.59,918.60,23.52,-0.09,0.01,1.16,3.2,5.2,-0.6,349.8,4.53,-292.5,-1325.6
109,2026-09-23 21:45:21,819.48,918.62,23.52,-0.09,0.01,1.16,3.0,5.0,-1.0,350.1,4.53,-291.4,-1319.5
110,2026-09-23 21:45:21,819.52,918.61,23.52,-0.09,0.01,1.19,4.2,5.8,-1.0,349.8,4.53,-292.5,-1325.6
111,2026-09-23 21:45:21,819.54,918.61,23.52,-0.09,0.01,1.17,3.2,4.9,-0.8,349.2,4.53,-291.3,-1319.0
112,2026-09-23 21:45:22,819.49,918.62,23.52,-0.09,0.01,1.15,3.0,5.1,-0.9,349.5,4.53,-293.2,-1328.8
113,2026-09-23 21:45:22,819.49,918.62,23.52,-0.09,0.01,1.16,3.0,5.2,-0.8,349.3,4.53,-291.9,-1322.9
114,2026-09-23 21:45:22,819.56,918.61,23.52,-0.09,0.01,1.16,3.6,5.3,-0.6,349.9,4.53,-290.0,-1314.3
115,2026-09-23 21:45:22,819.58,918.61,23.52,-0.09,0.00,1.16,3.1,5.0,-0.8,348.8,4.53,-289.8,-1313.4
116,2026-09-23 21:45:23,819.51,918.61,23.52,-0.09,0.01,1.16,3.0,5.0,-1.1,349.6,4.53,-290.8,-1317.9
117,2026-09-23 21:45:23,819.56,918.61,23.52,-0.09,0.00,1.16,3.0,5.1,-0.8,349.3,4.56,-264.0,-1202.8
118,2026-09-23 21:45:23,819.49,918.62,23.51,-0.09,0.00,1.15,3.8,5.5,-0.7,349.4,4.55,-274.0,-1247.2
119,2026-09-23 21:45:23,819.50,918.61,23.52,-0.09,0.01,1.16,3.2,5.1,-0.6,349.9,4.55,-275.8,-1254.3
120,2026-09-23 21:45:23,819.47,918.62,23.52,-0.09,0.01,1.16,3.0,4.9,-0.9,348.7,4.55,-276.5,-1257.5
121,2026-09-23 21:45:24,819.46,918.62,23.52,-0.09,0.01,1.16,2.9,5.3,-0.8,349.1,4.54,-277.3,-1258.9
122,2026-09-23 21:45:24,819.58,918.61,23.51,-0.09,0.01,1.16,2.8,5.2,-0.7,349.2,4.55,-273.2,-1243.6
123,2026-09-23 21:45:24,819.60,918.60,23.52,-0.09,0.01,1.16,3.0,5.5,-1.0,349.5,4.55,-270.7,-1232.2
124,2026-09-23 21:45:24,819.51,918.61,23.53,-0.09,0.01,1.15,3.2,5.5,-0.6,349.5,4.54,-278.1,-1263.7
125,2026-09-23 21:45:25,819.49,918.62,23.52,-0.09,0.01,1.16,2.9,5.0,-0.8,348.1,4.54,-281.2,-1277.8
126,2026-09-23 21:45:25,819.51,918.61,23.51,-0.08,-0.00,1.14,1.5,5.2,-1.1,348.9,4.54,-280.9,-1275.3
127,2026-09-23 21:45:25,819.54,918.61,23.53,-0.08,0.00,1.15,2.7,5.1,-1.0,348.9,4.54,-277.4,-1260.5
128,2026-09-23 21:45:25,819.49,918.62,23.52,-0.09,0.01,1.16,2.5,5.5,-1.1,349.2,4.53,-286.8,-1299.8
129,2026-09-23 21:45:25,819.54,918.61,23.52,-0.09,0.00,1.15,3.2,4.9,-0.7,348.4,4.52,-297.4,-1345.4
130,2026-09-23 21:45:26,819.56,918.61,23.53,-0.09,0.00,1.16,2.7,5.1,-1.0,350.1,4.53,-293.4,-1329.7
131,2026-09-23 21:45:26,819.46,918.62,23.53,-0.09,0.00,1.16,3.1,4.9,-0.8,350.2,4.54,-285.8,-1296.4
132,2026-09-23 21:45:26,819.53,918.61,23.53,-0.09,0.00,1.16,3.2,5.4,-0.9,349.7,4.53,-291.7,-1322.0
133,2026-09-23 21:45:26,819.51,918.61,23.52,-0.09,0.00,1.16,3.0,4.9,-0.9,349.0,4.52,-295.6,-1337.3
134,2026-09-23 21:45:27,819.47,918.62,23.53,-0.09,0.00,1.16,3.0,5.3,-0.8,350.3,4.52,-302.9,-1370.3
135,2026-09-23 21:45:27,819.53,918.61,23.53,-0.09,0.00,1.16,2.6,5.2,-0.7,349.8,4.52,-296.8,-1342.7
136,2026-09-23 21:45:27,819.53,918.61,23.54,-0.09,-0.00,1.16,3.0,5.2,-0.6,349.6,4.53,-295.8,-1339.4
137,2026-09-23 21:45:27,819.45,918.62,23.52,-0.09,0.00,1.16,3.1,4.9,-0.6,350.0,4.51,-309.2,-1395.1
138,2026-09-23 21:45:27,819.57,918.61,23.53,-0.09,0.00,1.16,3.3,4.8,-0.7,349.5,4.52,-304.6,-1378.0
139,2026-09-23 21:45:28,819.54,918.61,23.53,-0.09,0.00,1.16,3.2,4.9,-1.1,349.1,4.52,-303.2,-1370.5
140,2026-09-23 21:45:28,819.53,918.61,23.52,-0.09,0.00,1.16,2.7,5.1,-0.7,350.2,4.52,-303.9,-1374.8
141,2026-09-23 21:45:28,819.51,918.61,23.53,-0.09,0.01,1.15,3.0,5.1,-0.9,349.9,4.52,-302.5,-1367.3
142,2026-09-23 21:45:28,819.55,918.61,23.52,-0.09,0.00,1.16,2.8,5.1,-1.1,349.6,4.52,-303.5,-1371.8
143,2026-09-23 21:45:29,819.48,918.62,23.53,-0.09,0.00,1.16,2.9,5.0,-1.0,350.2,4.51,-309.9,-1398.3
144,2026-09-23 21:45:29,819.55,918.61,23.53,-0.09,0.01,1.16,2.8,5.0,-0.9,349.4,4.52,-308.4,-1392.7
145,2026-09-23 21:45:29,819.52,918.61,23.53,-0.09,0.00,1.16,2.8,4.7,-0.8,348.9,4.52,-295.8,-1338.2
146,2026-09-23 21:45:29,819.50,918.61,23.53,-0.09,0.00,1.16,3.1,5.4,-0.8,349.4,4.52,-299.7,-1355.8
147,2026-09-23 21:45:30,819.51,918.61,23.53,-0.09,0.00,1.16,3.2,5.1,-0.6,349.5,4.52,-299.4,-1354.5
148,2026-09-23 21:45:30,819.50,918.61,23.54,-0.09,0.00,1.16,2.4,5.2,-0.9,349.5,4.52,-308.9,-1395.0
149,2026-09-23 21:45:30,819.55,918.61,23.52,-0.09,0.00,1.16,2.9,5.4,-0.7,350.5,4.51,-309.6,-1396.9
150,2026-09-23 21:45:30,819.52,918.61,23.53,-0.09,0.00,1.16,2.9,4.7,-0.7,350.7,4.52,-309.6,-1398.2
151,2026-09-23 21:45:30,819.54,918.61,23.53,-0.08,0.00,1.16,3.2,5.3,-1.1,349.8,4.56,-257.3,-1173.3
152,2026-09-23 21:45:31,819.59,918.60,23.53,-0.09,0.00,1.16,3.0,5.2,-0.9,349.8,4.58,-243.1,-1114.4
153,2026-09-23 21:45:31,819.62,918.60,23.54,-0.08,0.00,1.16,3.1,5.3,-0.8,350.2,4.86,-0.1,-0.5
154,2026-09-23 21:45:31,819.49,918.62,23.52,-0.09,-0.00,1.16,3.0,5.1,-0.9,350.9,4.86,-0.4,-1.9
155,2026-09-23 21:45:31,819.60,918.60,23.53,-0.09,0.00,1.16,3.0,5.0,-1.0,350.3,4.85,-0.3,-1.5
156,2026-09-23 21:45:32,819.47,918.62,23.53,-0.09,0.00,1.16,3.0,5.3,-1.0,350.0,4.85,0.0,0.0
157,2026-09-23 21:45:32,819.53,918.61,23.53,-0.09,0.00,1.16,2.9,5.3,-0.9,350.0,4.85,-0.6,-2.9
158,2026-09-23 21:45:32,819.53,918.61,23.53,-0.09,-0.00,1.16,3.0,5.0,-0.6,350.0,4.85,-0.1,-0.5
159,2026-09-23 21:45:32,819.54,918.61,23.52,-0.09,0.00,1.16,3.1,5.2,-0.9,350.7,4.85,-0.5,-2.4
160,2026-09-23 21:45:32,819.52,918.61,23.53,-0.09,0.00,1.16,2.9,4.9,-1.1,350.9,4.85,-0.4,-1.9
161,2026-09-23 21:45:33,819.53,918.61,23.53,-0.09,-0.00,1.16,3.0,5.2,-0.7,350.8,4.85,-0.1,-0.5
162,2026-09-23 21:45:33,819.49,918.61,23.54,-0.09,0.00,1.16,3.0,5.1,-0.9,350.6,4.85,-0.2,-1.0
163,2026-09-23 21:45:33,819.45,918.62,23.53,-0.09,-0.01,1.13,10.0,3.7,0.1,350.5,4.84,-0.4,-1.9
164,2026-09-23 21:45:33,819.52,918.61,23.52,-0.09,0.01,1.16,3.0,4.8,-0.8,350.4,4.85,-0.1,-0.5
165,2026-09-23 21:45:34,819.55,918.61,23.52,-0.09,0.01,1.16,3.2,5.0,-1.0,350.2,4.85,-0.3,-1.5
166,2026-09-23 21:45:34,819.51,918.61,23.52,-0.09,0.01,1.16,3.1,5.1,-0.8,349.5,4.85,0.0,0.0
167,2026-09-23 21:45:34,819.48,918.62,23.52,-0.09,0.01,1.16,3.1,5.2,-1.0,350.0,4.84,0.0,0.0
168,2026-09-23 21:45:34,819.51,918.61,23.53,-0.09,0.00,1.16,3.0,4.9,-0.8,350.8,4.85,-0.4,-1.9
169,2026-09-23 21:45:34,819.45,918.62,23.51,-0.09,0.01,1.16,2.7,5.3,-0.7,350.1,4.84,-0.4,-1.9
170,2026-09-23 21:45:35,819.46,918.62,23.52,-0.09,0.01,1.16,3.2,5.1,-0.8,350.3,4.85,-0.4,-1.9
171,2026-09-23 21:45:35,819.53,918.61,23.52,-0.09,0.01,1.15,2.9,5.2,-1.0,349.5,4.84,-0.2,-1.0
172,2026-09-23 21:45:35,819.56,918.61,23.51,-0.09,0.00,1.16,3.0,5.1,-0.6,350.7,4.85,-0.4,-1.9
173,2026-09-23 21:45:35,819.54,918.61,23.53,-0.09,0.01,1.16,3.0,5.3,-0.8,350.5,4.85,-0.5,-2.4
174,2026-09-23 21:45:36,819.52,918.61,23.52,-0.09,0.01,1.16,2.7,5.3,-0.7,350.3,4.84,-0.3,-1.5
175,2026-09-23 21:45:36,819.51,918.61,23.52,-0.09,0.00,1.16,2.8,5.1,-1.0,351.3,4.84,-0.4,-1.9
176,2026-09-23 21:45:36,819.53,918.61,23.51,-0.09,0.01,1.15,2.9,5.1,-0.8,351.3,4.85,-0.1,-0.5
177,2026-09-23 21:45:36,819.55,918.61,23.52,-0.09,0.01,1.16,2.9,5.2,-0.6,350.9,4.85,-0.1,-0.5
178,2026-09-23 21:45:36,819.60,918.60,23.51,-0.09,0.00,1.16,3.1,4.7,-0.7,350.7,4.85,-0.3,-1.5
179,2026-09-23 21:45:37,819.60,918.60,23.51,-0.09,0.01,1.16,3.1,5.0,-0.9,350.8,4.84,-0.2,-1.0
180,2026-09-23 21:45:37,819.52,918.61,23.52,-0.09,0.01,1.16,2.9,5.0,-0.8,350.8,4.85,-0.5,-2.4
181,2026-09-23 21:45:37,819.53,918.61,23.52,-0.09,0.01,1.16,2.8,5.0,-0.8,350.4,4.85,-0.4,-1.9
182,2026-09-23 21:45:37,819.51,918.61,23.52,-0.09,0.01,1.16,3.0,4.8,-1.0,349.3,4.85,-0.3,-1.5
183,2026-09-23 21:45:38,819.56,918.61,23.52,-0.09,0.01,1.16,2.7,5.2,-0.7,349.5,4.85,-0.3,-1.5
184,2026-09-23 21:45:38,819.61,918.60,23.52,-0.09,0.01,1.16,2.8,5.3,-0.8,350.6,4.85,-0.2,-1.0
185,2026-09-23 21:45:38,819.56,918.61,23.52,-0.09,0.00,1.16,2.8,4.8,-0.8,351.2,4.84,-0.4,-1.9
186,2026-09-23 21:45:38,819.52,918.61,23.52,-0.09,0.00,1.16,2.9,5.1,-0.8,350.2,4.85,0.1,0.5
187,2026-09-23 21:45:38,819.59,918.60,23.52,-0.09,0.01,1.16,3.0,4.9,-0.7,351.1,4.85,0.0,0.0
188,2026-09-23 21:45:39,819.61,918.60,23.51,-0.09,0.01,1.15,2.9,5.1,-1.0,350.8,4.85,-0.4,-1.9
189,2026-09-23 21:45:39,819.50,918.61,23.52,-0.09,0.01,1.16,3.0,5.3,-0.8,350.8,4.85,0.2,1.0
190,2026-09-23 21:45:39,819.53,918.61,23.51,-0.09,0.01,1.16,2.8,5.2,-0.8,350.4,4.85,-0.2,-1.0
191,2026-09-23 21:45:39,819.57,918.61,23.52,-0.09,0.01,1.16,2.9,5.1,-0.8,350.3,4.85,-0.2,-1.0
192,2026-09-23 21:45:40,819.61,918.60,23.52,-0.09,0.01,1.16,3.1,5.0,-1.0,349.5,4.85,-0.6,-2.9
193,2026-09-23 21:45:40,819.52,918.61,23.52,-0.09,0.01,1.16,3.0,5.4,-1.0,350.8,4.84,-0.4,-1.9
194,2026-09-23 21:45:40,819.58,918.61,23.52,-0.09,0.01,1.16,3.0,5.3,-0.9,350.6,4.85,-0.2,-1.0
195,2026-09-23 21:45:40,819.48,918.62,23.52,-0.09,0.01,1.16,3.1,4.9,-1.0,350.4,4.85,-0.3,-1.5
196,2026-09-23 21:45:41,819.49,918.61,23.53,-0.09,0.01,1.16,2.9,5.1,-0.6,350.0,4.84,-0.1,-0.5
197,2026-09-23 21:45:41,819.57,918.61,23.51,-0.09,0.00,1.16,3.1,5.3,-0.9,349.6,4.84,-0.3,-1.5
198,2026-09-23 21:45:41,819.51,918.61,23.53,-0.09,0.00,1.16,2.9,5.3,-0.6,350.6,4.85,-0.3,-1.5
199,2026-09-23 21:45:41,819.50,918.61,23.52,-0.09,0.00,1.16,3.0,5.0,-1.0,349.9,4.85,-0.1,-0.5
200,2026-09-23 21:45:41,819.53,918.61,23.52,-0.09,0.01,1.16,3.0,5.1,-0.8,350.4,4.85,-0.3,-1.5
201,2026-09-23 21:45:42,819.53,918.61,23.52,-0.08,0.01,1.16,2.9,4.9,-0.7,349.6,4.84,-0.1,-0.5
202,2026-09-23 21:45:42,819.56,918.61,23.52,-0.09,0.01,1.16,3.1,5.1,-1.0,350.1,4.85,-0.2,-1.0
203,2026-09-23 21:45:42,819.60,918.60,23.52,-0.09,0.01,1.16,2.9,5.0,-0.8,351.2,4.85,-0.3,-1.5
204,2026-09-23 21:45:42,819.52,918.61,23.52,-0.09,0.01,1.16,3.0,5.5,-0.9,350.6,4.85,-0.4,-1.9
205,2026-09-23 21:45:42,819.50,918.61,23.53,-0.09,0.00,1.17,3.1,5.4,-0.9,350.7,4.84,-0.2,-1.0
206,2026-09-23 21:45:43,819.46,918.62,23.53,-0.09,0.01,1.16,3.1,5.1,-1.1,350.7,4.85,-0.4,-1.9
207,2026-09-23 21:45:43,819.55,918.61,23.53,-0.09,0.01,1.17,2.9,5.1,-0.8,350.7,4.84,0.0,0.0
208,2026-09-23 21:45:43,819.48,918.62,23.52,-0.09,0.01,1.16,3.0,5.1,-0.7,350.9,4.85,-0.1,-0.5
209,2026-09-23 21:45:43,819.55,918.61,23.53,-0.09,0.01,1.16,2.9,5.2,-0.7,350.8,4.85,-0.2,-1.0
210,2026-09-23 21:45:44,819.57,918.61,23.53,-0.09,0.01,1.16,3.0,4.8,-1.0,350.8,4.85,-0.1,-0.5
211,2026-09-23 21:45:44,819.59,918.60,23.53,-0.09,0.01,1.16,2.9,5.4,-0.9,351.0,4.84,-0.1,-0.5
212,2026-09-23 21:45:44,819.42,918.62,23.53,-0.09,0.01,1.16,3.0,5.1,-1.1,350.9,4.84,-0.3,-1.5
213,2026-09-23 21:45:44,819.51,918.61,23.53,-0.09,0.01,1.16,3.0,4.9,-0.9,350.3,4.84,-0.1,-0.5
214,2026-09-23 21:45:45,819.43,918.62,23.53,-0.09,0.01,1.16,2.9,5.1,-1.0,351.0,4.85,-0.4,-1.9
215,2026-09-23 21:45:45,819.48,918.62,23.53,-0.09,0.01,1.16,2.9,5.2,-0.9,350.6,4.84,-0.2,-1.0
216,2026-09-23 21:45:45,819.58,918.60,23.53,-0.09,0.01,1.16,3.1,5.1,-0.9,351.1,4.85,-0.1,-0.5
217,2026-09-23 21:45:45,819.57,918.61,23.54,-0.09,0.00,1.16,2.9,5.2,-0.9,350.2,4.84,-0.5,-2.4
218,2026-09-23 21:45:45,819.45,918.62,23.54,-0.09,0.01,1.16,3.0,5.0,-0.6,350.5,4.85,-0.3,-1.5
219,2026-09-23 21:45:46,819.49,918.62,23.53,-0.09,0.00,1.16,3.1,5.1,-0.9,350.8,4.84,-0.2,-1.0
220,2026-09-23 21:45:46,819.56,918.61,23.54,-0.09,0.01,1.16,3.0,4.8,-1.0,350.5,4.85,0.1,0.5
221,2026-09-23 21:45:46,819.50,918.61,23.53,-0.09,0.01,1.16,2.9,5.1,-0.7,349.9,4.84,-0.1,-0.5
222,2026-09-23 21:45:46,819.53,918.61,23.54,-0.09,0.01,1.16,2.9,5.1,-0.6,350.2,4.85,-0.3,-1.5
223,2026-09-23 21:45:47,819.57,918.61,23.53,-0.09,0.01,1.16,3.1,4.8,-1.1,350.8,4.85,-0.2,-1.0
224,2026-09-23 21:45:47,819.56,918.61,23.54,-0.09,0.01,1.16,3.1,5.2,-0.9,350.8,4.84,-0.1,-0.5
225,2026-09-23 21:45:47,819.53,918.61,23.53,-0.09,0.01,1.16,3.1,4.9,-0.6,350.5,4.84,-0.1,-0.5
226,2026-09-23 21:45:47,819.53,918.61,23.54,-0.09,0.01,1.16,3.2,4.8,-1.0,350.3,4.85,-0.2,-1.0
227,2026-09-23 21:45:47,819.56,918.61,23.54,-0.09,0.01,1.16,3.1,5.0,-0.8,350.3,4.84,0.0,0.0
228,2026-09-23 21:45:48,819.49,918.62,23.54,-0.09,0.01,1.16,2.9,4.9,-0.6,350.8,4.85,0.1,0.5
229,2026-09-23 21:45:48,819.59,918.60,23.54,-0.09,0.01,1.16,2.9,5.0,-1.0,349.2,4.85,-0.4,-1.9
230,2026-09-23 21:45:48,819.55,918.61,23.54,-0.09,0.01,1.15,2.9,4.9,-0.6,350.7,4.85,-0.4,-1.9
231,2026-09-23 21:45:48,819.53,918.61,23.53,-0.09,0.01,1.16,2.9,5.1,-0.8,350.7,4.84,-0.2,-1.0
232,2026-09-23 21:45:49,819.53,918.61,23.54,-0.09,0.01,1.16,3.0,5.4,-0.7,350.4,4.85,-0.5,-2.4
233,2026-09-23 21:45:49,819.60,918.60,23.55,-0.09,0.00,1.15,2.8,5.5,-0.8,350.2,4.84,-0.4,-1.9
234,2026-09-23 21:45:49,819.48,918.62,23.55,-0.07,0.02,1.17,3.2,5.5,-0.6,351.5,4.85,-0.3,-1.5
235,2026-09-23 21:45:49,819.44,918.62,23.54,-0.09,0.01,1.16,2.8,4.9,-0.9,351.9,4.84,-0.5,-2.4
236,2026-09-23 21:45:49,819.55,918.61,23.54,-0.09,0.01,1.16,3.0,5.0,-1.0,351.5,4.84,-0.2,-1.0
237,2026-09-23 21:45:50,819.45,918.62,23.54,-0.09,0.01,1.15,3.0,4.9,-0.8,351.3,4.85,0.0,0.0
238,2026-09-23 21:45:50,819.51,918.61,23.54,-0.09,0.01,1.16,2.8,5.2,-0.7,350.9,4.85,-0.3,-1.5
239,2026-09-23 21:45:50,819.49,918.61,23.55,-0.08,0.01,1.16,2.9,5.2,-0.7,351.3,4.84,-0.2,-1.0
240,2026-09-23 21:45:50,819.50,918.61,23.54,-0.09,0.01,1.16,2.8,5.1,-0.7,350.9,4.85,-0.1,-0.5
241,2026-09-23 21:45:51,819.52,918.61,23.55,-0.09,0.01,1.16,2.9,5.2,-0.7,352.3,4.84,0.0,0.0
242,2026-09-23 21:45:51,819.61,918.60,23.55,-0.09,0.01,1.16,2.9,5.0,-0.6,351.5,4.85,-0.1,-0.5
243,2026-09-23 21:45:51,819.51,918.61,23.55,-0.09,0.01,1.16,2.9,5.2,-1.0,351.1,4.84,-0.4,-1.9
244,2026-09-23 21:45:51,819.52,918.61,23.55,-0.09,0.01,1.16,3.1,5.1,-0.7,351.3,4.85,-0.2,-1.0
245,2026-09-23 21:45:51,819.48,918.62,23.56,-0.09,0.01,1.15,3.0,5.0,-0.9,351.3,4.84,-0.3,-1.5
246,2026-09-23 21:45:52,819.58,918.61,23.54,-0.09,0.01,1.15,3.0,5.1,-1.1,350.8,4.84,0.0,0.0
247,2026-09-23 21:45:52,819.47,918.62,23.54,-0.09,0.01,1.16,3.1,5.2,-0.9,351.1,4.84,-0.3,-1.5
248,2026-09-23 21:45:52,819.51,918.61,23.55,-0.09,0.01,1.16,2.9,5.2,-1.1,351.6,4.84,-0.3,-1.5
249,2026-09-23 21:45:52,819.50,918.61,23.54,-0.09,0.01,1.16,3.0,4.9,-1.3,352.1,4.84,-0.3,-1.5
250,2026-09-23 21:45:53,819.51,918.61,23.55,-0.09,0.01,1.16,3.0,4.9,-1.1,352.1,4.85,-0.2,-1.0
251,2026-09-23 21:45:53,819.51,918.61,23.55,-0.09,0.01,1.15,3.0,5.0,-0.7,352.1,4.84,-0.3,-1.5
252,2026-09-23 21:45:53,819.45,918.62,23.56,-0.09,0.01,1.16,3.1,4.9,-0.8,351.9,4.85,-0.1,-0.5
253,2026-09-23 21:45:53,819.44,918.62,23.55,-0.09,0.01,1.16,2.7,5.1,-1.0,352.2,4.85,-0.4,-1.9
254,2026-09-23 21:45:53,819.47,918.62,23.55,-0.09,0.01,1.16,2.9,4.8,-0.9,351.9,4.85,-0.2,-1.0
255,2026-09-23 21:45:54,819.45,918.62,23.56,-0.09,0.01,1.16,2.9,4.8,-0.8,351.3,4.84,-0.4,-1.9
256,2026-09-23 21:45:54,819.44,918.62,23.56,-0.09,0.01,1.16,2.9,4.9,-0.9,351.7,4.85,-0.1,-0.5
257,2026-09-23 21:45:54,819.36,918.63,23.55,-0.09,0.01,1.16,3.0,5.3,-0.8,350.8,4.85,0.0,0.0
258,2026-09-23 21:45:54,819.47,918.62,23.54,-0.09,0.01,1.16,3.0,5.2,-0.6,351.9,4.84,-0.3,-1.5
259,2026-09-23 21:45:55,819.44,918.62,23.56,-0.09,0.01,1.15,2.9,4.9,-0.7,352.0,4.84,-0.4,-1.9
260,2026-09-23 21:45:55,819.40,918.63,23.54,-0.09,0.01,1.16,3.0,5.1,-0.9,350.6,4.84,-0.2,-1.0
261,2026-09-23 21:45:55,819.45,918.62,23.56,-0.09,0.01,1.16,3.2,5.1,-0.9,351.5,4.84,-0.2,-1.0
262,2026-09-23 21:45:55,819.46,918.62,23.55,-0.09,0.01,1.16,2.7,5.0,-0.8,351.5,4.85,-0.4,-1.9
263,2026-09-23 21:45:56,819.45,918.62,23.55,-0.09,0.01,1.16,2.9,5.0,-0.7,350.7,4.84,-0.2,-1.0
264,2026-09-23 21:45:56,819.40,918.62,23.55,-0.09,0.01,1.16,3.0,5.2,-0.6,351.1,4.85,-0.3,-1.5
265,2026-09-23 21:45:56,819.41,918.62,23.55,-0.09,0.01,1.16,3.1,5.2,-1.0,351.0,4.84,0.0,0.0
266,2026-09-23 21:45:56,819.45,918.62,23.56,-0.09,0.01,1.16,3.0,5.2,-0.6,351.3,4.85,-0.3,-1.5
267,2026-09-23 21:45:56,819.45,918.62,23.55,-0.09,0.01,1.16,2.9,5.2,-0.7,350.7,4.84,-0.4,-1.9
268,2026-09-23 21:45:57,819.43,918.62,23.56,-0.09,0.01,1.16,2.9,5.3,-0.8,351.7,4.85,-0.3,-1.5
269,2026-09-23 21:45:57,819.40,918.63,23.54,-0.09,0.01,1.16,2.9,5.0,-0.8,351.0,4.84,-0.3,-1.5
270,2026-09-23 21:45:57,819.41,918.62,23.55,-0.09,0.01,1.16,3.0,5.0,-0.6,350.5,4.85,-0.3,-1.5
271,2026-09-23 21:45:57,819.42,918.62,23.55,-0.09,0.01,1.16,2.9,4.7,-0.7,351.3,4.84,-0.3,-1.5
272,2026-09-23 21:45:58,819.38,918.63,23.55,-0.09,0.01,1.16,3.1,5.0,-0.7,351.6,4.85,-0.4,-1.9
273,2026-09-23 21:45:58,819.41,918.62,23.56,-0.09,0.00,1.16,3.0,5.1,-0.7,351.8,4.84,-0.6,-2.9
274,2026-09-23 21:45:58,819.39,918.63,23.55,-0.09,0.01,1.16,3.3,5.0,-0.8,351.0,4.85,-0.2,-1.0
275,2026-09-23 21:45:58,819.47,918.62,23.55,-0.09,0.01,1.16,3.1,5.1,-0.9,350.8,4.84,-0.3,-1.5
276,2026-09-23 21:45:58,819.40,918.63,23.54,-0.09,0.01,1.16,2.7,5.1,-1.0,351.2,4.85,-0.3,-1.5
277,2026-09-23 21:45:59,819.36,918.63,23.55,-0.09,0.01,1.16,2.9,5.1,-0.9,351.6,4.85,-0.2,-1.0
278,2026-09-23 21:45:59,819.40,918.62,23.55,-0.08,0.01,1.16,3.1,4.9,-0.8,351.6,4.84,-0.2,-1.0
279,2026-09-23 21:45:59,819.35,918.63,23.54,-0.09,0.01,1.16,3.1,5.4,-1.0,351.2,4.85,-0.3,-1.5
280,2026-09-23 21:45:59,819.39,918.63,23.55,-0.09,0.01,1.16,3.1,5.0,-0.5,351.3,4.85,0.0,0.0
281,2026-09-23 21:46:00,819.45,918.62,23.55,-0.09,0.01,1.16,2.8,4.9,-0.9,351.8,4.84,-0.3,-1.5
282,2026-09-23 21:46:00,819.45,918.62,23.56,-0.09,0.01,1.16,2.9,5.1,-0.6,351.4,4.84,-0.3,-1.5
283,2026-09-23 21:46:00,819.47,918.62,23.55,-0.09,0.01,1.15,3.1,5.0,-1.0,351.1,4.85,0.2,1.0
284,2026-09-23 21:46:00,819.42,918.62,23.53,-0.09,0.01,1.16,3.1,4.9,-0.8,351.3,4.85,-0.2,-1.0
285,2026-09-23 21:46:00,819.42,918.62,23.55,-0.09,0.01,1.16,3.0,5.3,-0.6,351.9,4.84,0.0,0.0
286,2026-09-23 21:46:01,819.39,918.63,23.54,-0.09,0.01,1.16,2.9,4.9,-0.6,352.1,4.84,-0.3,-1.5
287,2026-09-23 21:46:01,819.39,918.63,23.55,-0.09,0.01,1.16,3.0,5.0,-1.0,350.7,4.84,-0.2,-1.0
288,2026-09-23 21:46:01,819.42,918.62,23.55,-0.09,0.01,1.16,2.9,5.1,-0.7,350.8,4.85,-0.3,-1.5
289,2026-09-23 21:46:01,819.43,918.62,23.55,-0.09,0.01,1.16,3.0,5.0,-0.8,350.9,4.85,-0.2,-1.0
290,2026-09-23 21:46:02,819.38,918.63,23.55,-0.09,0.00,1.16,2.9,4.8,-0.9,351.5,4.85,-0.2,-1.0
291,2026-09-23 21:46:02,819.45,918.62,23.56,-0.09,0.01,1.15,3.1,5.1,-0.7,351.4,4.84,-0.2,-1.0
292,2026-09-23 21:46:02,819.39,918.63,23.55,-0.09,0.01,1.16,3.2,5.1,-0.8,351.4,4.85,-0.1,-0.5
293,2026-09-23 21:46:02,819.41,918.62,23.55,-0.09,0.01,1.15,3.2,4.8,-0.6,351.1,4.85,-0.3,-1.5
294,2026-09-23 21:46:03,819.45,918.62,23.55,-0.09,0.00,1.16,3.2,4.9,-0.7,351.8,4.84,-0.4,-1.9
295,2026-09-23 21:46:03,819.40,918.63,23.55,-0.09,0.01,1.15,3.1,5.1,-0.6,351.2,4.85,-0.5,-2.4
296,2026-09-23 21:46:03,819.37,918.63,23.55,-0.09,0.01,1.15,2.9,5.3,-1.0,352.0,4.85,-0.1,-0.5
297,2026-09-23 21:46:03,819.40,918.63,23.54,-0.09,0.01,1.16,3.1,5.2,-0.8,350.8,4.84,-0.2,-1.0
298,2026-09-23 21:46:03,819.38,918.63,23.54,-0.09,0.01,1.16,2.9,5.2,-0.8,351.4,4.84,-0.1,-0.5
299,2026-09-23 21:46:04,819.36,918.63,23.54,-0.09,0.01,1.16,2.8,4.9,-0.7,351.4,4.85,-0.3,-1.5
300,2026-09-23 21:46:04,819.38,918.63,23.55,-0.09,0.01,1.16,3.1,4.8,-0.8,351.3,4.84,-0.2,-1.0
301,2026-09-23 21:46:04,819.37,918.63,23.55,-0.09,0.01,1.16,3.1,5.0,-1.0,350.7,4.84,-0.2,-1.0
302,2026-09-23 21:46:04,819.33,918.63,23.55,-0.09,0.01,1.16,3.0,5.0,-1.0,351.5,4.85,-0.2,-1.0
303,2026-09-23 21:46:05,819.39,918.63,23.55,-0.09,0.01,1.16,2.9,5.1,-0.8,351.0,4.84,-0.4,-1.9
304,2026-09-23 21:46:05,819.40,918.63,23.54,-0.09,0.00,1.16,3.1,4.9,-0.8,350.8,4.85,-0.4,-1.9
305,2026-09-23 21:46:05,819.40,918.62,23.54,-0.09,0.01,1.16,2.9,5.2,-0.8,350.3,4.84,0.2,1.0
306,2026-09-23 21:46:05,819.43,918.62,23.55,-0.09,0.01,1.16,2.9,5.0,-0.9,351.3,4.85,-0.3,-1.5
307,2026-09-23 21:46:05,819.39,918.63,23.55,-0.09,0.00,1.16,3.0,5.1,-1.0,351.3,4.84,-0.2,-1.0
308,2026-09-23 21:46:06,819.45,918.62,23.55,-0.09,0.01,1.16,2.9,5.2,-0.8,351.2,4.84,-0.1,-0.5
309,2026-09-23 21:46:06,819.41,918.62,23.55,-0.09,0.01,1.17,3.2,5.1,-0.8,351.3,4.84,-0.4,-1.9
310,2026-09-23 21:46:06,819.47,918.62,23.55,-0.09,0.01,1.16,3.0,5.2,-0.6,351.0,4.85,-0.2,-1.0
311,2026-09-23 21:46:06,819.46,918.62,23.55,-0.09,0.01,1.16,3.0,4.6,-0.6,351.1,4.84,-0.1,-0.5
312,2026-09-23 21:46:07,819.44,918.62,23.56,-0.09,0.01,1.16,2.9,5.3,-0.8,351.6,4.85,-0.2,-1.0
313,2026-09-23 21:46:07,819.34,918.63,23.54,-0.09,0.01,1.16,2.8,5.2,-0.7,351.3,4.84,-0.2,-1.0
314,2026-09-23 21:46:07,819.41,918.62,23.54,-0.09,0.01,1.16,2.9,5.0,-0.9,351.4,4.85,0.1,0.5
315,2026-09-23 21:46:07,819.40,918.63,23.55,-0.09,0.01,1.16,3.2,5.2,-0.7,350.2,4.84,-0.4,-1.9
316,2026-09-23 21:46:07,819.41,918.62,23.55,-0.09,0.01,1.16,3.2,5.1,-0.5,351.8,4.84,-0.5,-2.4
317,2026-09-23 21:46:08,819.40,918.62,23.55,-0.09,0.01,1.16,2.7,5.2,-1.0,350.6,4.84,-0.5,-2.4
318,2026-09-23 21:46:08,819.43,918.62,23.55,-0.09,0.01,1.16,3.0,5.2,-1.1,351.1,4.84,-0.2,-1.0
319,2026-09-23 21:46:08,819.40,918.62,23.55,-0.09,0.01,1.16,3.1,5.3,-0.8,351.4,4.84,-0.4,-1.9
320,2026-09-23 21:46:08,819.42,918.62,23.55,-0.09,0.01,1.16,3.1,5.1,-0.9,350.2,4.85,-0.5,-2.4
321,2026-09-23 21:46:09,819.44,918.62,23.56,-0.09,0.01,1.16,2.9,5.1,-1.0,351.4,4.84,-0.2,-1.0
322,2026-09-23 21:46:09,819.42,918.62,23.56,-0.09,0.00,1.16,3.0,5.3,-0.7,351.0,4.85,-0.1,-0.5
323,2026-09-23 21:46:09,819.41,918.62,23.54,-0.09,0.01,1.16,3.0,5.4,-1.0,351.0,4.84,-0.1,-0.5
324,2026-09-23 21:46:09,819.44,918.62,23.55,-0.09,0.01,1.16,2.9,5.1,-0.8,351.4,4.84,-0.2,-1.0
325,2026-09-23 21:46:09,819.44,918.62,23.55,-0.09,0.01,1.15,3.0,5.3,-0.9,350.7,4.85,-0.2,-1.0
326,2026-09-23 21:46:10,819.47,918.62,23.55,-0.09,0.01,1.16,3.1,5.1,-0.9,350.8,4.85,-0.2,-1.0
327,2026-09-23 21:46:10,819.42,918.62,23.55,-0.09,0.01,1.16,2.9,5.3,-0.8,351.1,4.84,-0.5,-2.4
328,2026-09-23 21:46:10,819.41,918.62,23.54,-0.09,0.01,1.16,3.1,5.2,-0.7,350.8,4.85,-0.4,-1.9
329,2026-09-23 21:46:10,819.32,918.63,23.55,-0.09,0.01,1.16,2.9,4.9,-1.1,351.5,4.84,-0.2,-1.0
330,2026-09-23 21:46:11,819.45,918.62,23.55,-0.09,0.01,1.16,3.0,5.0,-0.9,351.2,4.85,-0.2,-1.0
331,2026-09-23 21:46:11,819.36,918.63,23.55,-0.09,0.01,1.16,3.1,5.2,-1.0,351.3,4.84,-0.2,-1.0
332,2026-09-23 21:46:11,819.43,918.62,23.54,-0.09,0.00,1.16,3.1,5.0,-0.9,351.1,4.85,-0.6,-2.9
333,2026-09-23 21:46:11,819.42,918.62,23.55,-0.09,0.01,1.15,2.9,4.8,-0.7,350.8,4.85,0.0,0.0
334,2026-09-23 21:46:11,819.41,918.62,23.54,-0.09,0.01,1.15,2.9,4.8,-0.9,351.5,4.84,-0.3,-1.5
335,2026-09-23 21:46:12,819.44,918.62,23.54,-0.09,0.01,1.16,2.9,5.2,-1.2,351.2,4.85,-0.1,-0.5
336,2026-09-23 21:46:12,819.36,918.63,23.54,-0.09,0.01,1.16,2.9,5.0,-0.9,351.4,4.85,-0.2,-1.0
337,2026-09-23 21:46:12,819.33,918.63,23.54,-0.09,0.01,1.17,2.8,5.2,-0.8,351.8,4.84,-0.5,-2.4
338,2026-09-23 21:46:12,819.37,918.63,23.56,-0.09,0.01,1.15,3.0,5.2,-0.9,351.4,4.84,-0.2,-1.0
339,2026-09-23 21:46:13,819.40,918.62,23.55,-0.09,0.01,1.16,2.8,4.9,-0.8,351.4,4.85,-0.5,-2.4
340,2026-09-23 21:46:13,819.40,918.62,23.55,-0.09,0.01,1.15,2.9,5.0,-0.9,351.1,4.85,-0.2,-1.0
341,2026-09-23 21:46:13,819.37,918.63,23.55,-0.09,0.01,1.16,3.1,4.9,-0.7,351.3,4.85,-0.2,-1.0
342,2026-09-23 21:46:13,819.33,918.63,23.55,-0.09,0.00,1.16,3.1,4.9,-0.8,351.6,4.84,-0.3,-1.5
343,2026-09-23 21:46:14,819.41,918.62,23.55,-0.09,0.01,1.16,3.1,5.1,-0.9,349.9,4.85,-0.4,-1.9
344,2026-09-23 21:46:14,819.35,918.63,23.55,-0.09,0.01,1.16,3.1,5.1,-1.0,350.5,4.84,-0.4,-1.9
345,2026-09-23 21:46:14,819.42,918.62,23.55,-0.09,0.01,1.16,2.9,4.7,-0.5,350.6,4.85,-0.2,-1.0
346,2026-09-23 21:46:14,819.41,918.62,23.55,-0.09,0.01,1.16,3.0,4.9,-0.9,350.8,4.85,0.0,0.0
347,2026-09-23 21:46:14,819.43,918.62,23.54,-0.09,0.01,1.16,2.8,4.9,-0.9,350.8,4.84,0.1,0.5
348,2026-09-23 21:46:15,819.44,918.62,23.54,-0.09,0.01,1.16,2.9,4.7,-1.0,351.0,4.85,-0.3,-1.5
349,2026-09-23 21:46:15,819.36,918.63,23.56,-0.08,0.01,1.16,2.9,5.3,-0.8,351.2,4.84,-0.4,-1.9
350,2026-09-23 21:46:15,819.40,918.63,23.56,-0.09,0.00,1.16,3.1,5.1,-0.8,350.9,4.85,-0.1,-0.5
351,2026-09-23 21:46:15,819.39,918.63,23.55,-0.08,0.00,1.15,3.0,4.7,-1.1,350.1,4.84,-0.5,-2.4
352,2026-09-23 21:46:16,819.41,918.62,23.55,-0.09,0.00,1.16,3.1,5.1,-0.7,351.1,4.84,-0.4,-1.9
353,2026-09-23 21:46:16,819.37,918.63,23.55,-0.08,0.01,1.16,3.0,5.0,-0.8,350.9,4.84,-0.3,-1.5
354,2026-09-23 21:46:16,819.47,918.62,23.54,-0.09,0.01,1.16,2.9,4.9,-0.8,350.1,4.85,-0.3,-1.5
355,2026-09-23 21:46:16,819.40,918.63,23.55,-0.09,0.01,1.16,3.1,5.1,-0.7,351.0,4.84,-0.2,-1.0
356,2026-09-23 21:46:16,819.41,918.62,23.55,-0.08,0.00,1.16,3.2,4.9,-1.0,351.5,4.85,-0.2,-1.0
357,2026-09-23 21:46:17,819.40,918.63,23.55,-0.09,0.01,1.16,3.0,5.1,-1.2,350.9,4.84,0.0,0.0
358,2026-09-23 21:46:17,819.33,918.63,23.55,-0.09,0.00,1.16,2.9,5.2,-1.1,350.8,4.85,0.0,0.0
359,2026-09-23 21:46:17,819.31,918.63,23.55,-0.09,0.01,1.16,3.0,5.2,-0.7,351.6,4.84,-0.2,-1.0
360,2026-09-23 21:46:17,819.32,918.63,23.55,-0.09,0.01,1.15,2.9,4.7,-0.6,350.8,4.85,-0.4,-1.9
361,2026-09-23 21:46:18,819.36,918.63,23.54,-0.09,0.01,1.16,3.0,5.1,-0.9,351.5,4.84,-0.3,-1.5
362,2026-09-23 21:46:18,819.36,918.63,23.55,-0.09,0.01,1.16,2.9,5.0,-0.8,351.3,4.85,-0.3,-1.5
363,2026-09-23 21:46:18,819.39,918.63,23.55,-0.09,0.01,1.16,2.9,5.0,-0.7,351.6,4.84,-0.3,-1.5
364,2026-09-23 21:46:18,819.38,918.63,23.56,-0.08,0.01,1.15,2.8,4.8,-0.6,351.2,4.85,-0.1,-0.5
365,2026-09-23 21:46:18,819.35,918.63,23.55,-0.09,0.01,1.16,3.0,5.1,-0.9,351.2,4.84,-0.2,-1.0
366,2026-09-23 21:46:19,819.36,918.63,23.54,-0.09,0.01,1.16,2.9,5.2,-0.8,351.1,4.85,-0.1,-0.5
367,2026-09-23 21:46:19,819.31,918.64,23.54,-0.09,0.01,1.16,3.0,5.0,-0.8,350.8,4.84,-0.2,-1.0
368,2026-09-23 21:46:19,819.38,918.63,23.55,-0.09,0.01,1.16,2.7,5.0,-0.9,351.2,4.85,-0.2,-1.0
369,2026-09-23 21:46:19,819.36,918.63,23.55,-0.09,0.01,1.16,2.9,5.1,-0.7,350.4,4.84,0.1,0.5
370,2026-09-23 21:46:20,819.35,918.63,23.55,-0.09,0.01,1.16,3.0,5.1,-0.8,351.7,4.85,-0.2,-1.0
371,2026-09-23 21:46:20,819.40,918.63,23.55,-0.09,0.01,1.16,3.0,5.3,-1.0,351.5,4.84,-0.3,-1.5
1,2026-09-23 21:46:21,819.34,918.63,23.55,-0.09,0.01,1.16,2.8,5.1,-0.8,316.8,4.85,-0.1,-0.5
2,2026-09-23 21:46:21,819.34,918.63,23.54,-0.09,0.01,1.16,3.1,5.0,-0.9,351.0,4.85,-0.3,-1.5
3,2026-09-23 21:46:22,819.38,918.63,23.55,-0.09,0.01,1.16,3.0,4.9,-0.8,350.4,4.85,-0.4,-1.9
4,2026-09-23 21:46:22,819.34,918.63,23.55,-0.09,0.01,1.16,3.2,5.0,-0.7,351.0,4.85,-0.4,-1.9
5,2026-09-23 21:46:22,819.31,918.64,23.54,-0.09,0.01,1.16,3.0,4.9,-1.1,351.1,4.84,-0.3,-1.5
6,2026-09-23 21:46:22,819.32,918.63,23.55,-0.09,0.01,1.16,3.0,5.1,-0.9,351.5,4.84,-0.5,-2.4
7,2026-09-23 21:46:22,819.30,918.64,23.55,-0.09,0.01,1.16,3.0,5.4,-0.7,351.3,4.84,-0.2,-1.0
8,2026-09-23 21:46:23,819.28,918.64,23.55,-0.09,0.01,1.16,2.7,4.9,-0.8,352.0,4.85,-0.2,-1.0
9,2026-09-23 21:46:23,819.31,918.64,23.55,-0.09,0.01,1.16,3.1,4.9,-0.8,350.9,4.84,-0.3,-1.5
10,2026-09-23 21:46:23,819.38,918.63,23.54,-0.09,0.01,1.16,2.8,5.0,-1.0,352.0,4.85,-0.3,-1.5
11,2026-09-23 21:46:23,819.28,918.64,23.54,-0.09,0.01,1.16,3.0,5.1,-0.8,352.1,4.84,-0.2,-1.0
12,2026-09-23 21:46:24,819.33,918.63,23.55,-0.09,0.01,1.16,3.0,5.0,-0.7,351.1,4.85,-0.3,-1.5
13,2026-09-23 21:46:24,819.29,918.64,23.55,-0.09,0.01,1.16,3.0,4.9,-0.7,351.4,4.84,-0.2,-1.0
14,2026-09-23 21:46:24,819.27,918.64,23.55,-0.09,0.01,1.16,2.9,4.9,-1.0,351.3,4.85,-0.2,-1.0
15,2026-09-23 21:46:24,819.29,918.64,23.55,-0.09,0.00,1.16,3.1,4.8,-1.0,351.8,4.84,-0.3,-1.5
16,2026-09-23 21:46:24,819.31,918.64,23.54,-0.09,0.01,1.15,2.9,5.1,-0.7,351.8,4.84,0.0,0.0
17,2026-09-23 21:46:25,819.34,918.63,23.55,-0.09,0.01,1.16,3.1,5.0,-0.8,351.9,4.84,-0.6,-2.9
18,2026-09-23 21:46:25,819.24,918.64,23.55,-0.09,0.01,1.16,3.0,5.0,-0.8,351.1,4.84,-0.1,-0.5
19,2026-09-23 21:46:25,819.31,918.64,23.56,-0.09,0.01,1.16,2.9,5.3,-0.7,350.8,4.84,-0.3,-1.5
20,2026-09-23 21:46:25,819.25,918.64,23.55,-0.09,0.01,1.17,3.1,4.9,-0.9,352.1,4.85,-0.1,-0.5
21,2026-09-23 21:46:26,819.30,918.64,23.55,-0.09,0.01,1.16,3.0,5.0,-1.0,351.3,4.84,-0.5,-2.4
22,2026-09-23 21:46:26,819.27,918.64,23.56,-0.08,0.01,1.15,3.1,5.0,-0.5,352.2,4.84,-0.3,-1.5
23,2026-09-23 21:46:26,819.33,918.63,23.55,-0.09,0.01,1.16,3.1,5.0,-0.8,352.2,4.84,-0.2,-1.0
24,2026-09-23 21:46:26,819.23,918.64,23.55,-0.09,0.01,1.15,3.0,5.0,-0.9,351.1,4.85,-0.3,-1.5
1,2026-09-23 21:46:29,819.28,918.64,23.56,-0.09,0.01,1.16,2.9,5.0,-0.8,318.1,4.84,0.0,0.0
2,2026-09-23 21:46:29,819.24,918.64,23.56,-0.09,0.01,1.16,3.0,4.8,-0.9,350.9,4.85,-0.3,-1.5
3,2026-09-23 21:46:29,819.26,918.64,23.56,-0.09,0.01,1.16,2.9,5.2,-0.8,351.3,4.84,-0.3,-1.5
4,2026-09-23 21:46:29,819.28,918.64,23.56,-0.09,0.01,1.16,2.9,5.2,-0.8,351.1,4.85,-0.3,-1.5
5,2026-09-23 21:46:29,819.16,918.65,23.56,-0.09,0.01,1.16,3.1,5.1,-0.9,351.1,4.84,0.0,0.0
6,2026-09-23 21:46:30,819.23,918.64,23.56,-0.09,0.01,1.16,3.0,5.2,-0.8,351.0,4.85,-0.1,-0.5
7,2026-09-23 21:46:30,819.30,918.64,23.57,-0.09,0.01,1.16,2.9,5.2,-0.9,351.2,4.84,-0.3,-1.5
8,2026-09-23 21:46:30,819.20,918.65,23.56,-0.09,0.01,1.16,2.9,5.2,-0.8,351.2,4.85,-0.2,-1.0
9,2026-09-23 21:46:30,819.20,918.65,23.58,-0.08,0.01,1.16,3.0,4.9,-0.9,351.3,4.84,-0.2,-1.0
10,2026-09-23 21:46:31,819.26,918.64,23.56,-0.09,0.01,1.16,2.8,5.3,-0.7,350.3,4.85,-0.4,-1.9
11,2026-09-23 21:46:31,819.21,918.65,23.56,-0.09,0.01,1.15,2.8,5.1,-0.6,351.6,4.84,-0.4,-1.9
12,2026-09-23 21:46:31,819.20,918.65,23.56,-0.09,0.01,1.16,3.0,5.3,-0.8,352.2,4.84,-0.3,-1.5
13,2026-09-23 21:46:31,819.25,918.64,23.57,-0.09,0.01,1.16,3.1,4.9,-0.7,351.1,4.85,-0.3,-1.5
14,2026-09-23 21:46:31,819.22,918.65,23.56,-0.08,0.01,1.16,3.1,4.4,-0.8,351.1,4.85,-0.2,-1.0
15,2026-09-23 21:46:32,819.25,918.64,23.56,-0.08,0.01,1.15,3.3,5.0,-1.0,351.7,4.84,-0.1,-0.5
16,2026-09-23 21:46:32,819.23,918.64,23.57,-0.08,0.01,1.16,3.0,5.0,-0.8,351.4,4.85,-0.2,-1.0
17,2026-09-23 21:46:32,819.22,918.64,23.57,-0.08,0.01,1.16,3.1,5.3,-0.8,351.6,4.84,-0.3,-1.5
18,2026-09-23 21:46:32,819.21,918.65,23.57,-0.08,0.01,1.16,2.8,5.1,-0.7,351.9,4.84,-0.3,-1.5
19,2026-09-23 21:46:33,819.17,918.65,23.58,-0.08,0.01,1.16,2.9,5.3,-0.6,351.5,4.84,-0.1,-0.5
20,2026-09-23 21:46:33,819.20,918.65,23.56,-0.08,0.00,1.16,3.0,5.3,-0.8,351.6,4.85,-0.3,-1.5
21,2026-09-23 21:46:33,819.21,918.65,23.56,-0.08,0.00,1.17,3.2,5.2,-0.8,351.1,4.85,0.0,0.0
22,2026-09-23 21:46:33,819.21,918.65,23.56,-0.09,0.01,1.16,3.1,5.1,-0.6,351.8,4.85,-0.4,-1.9
23,2026-09-23 21:46:33,819.17,918.65,23.55,-0.08,0.01,1.16,3.0,4.8,-1.1,350.8,4.84,-0.1,-0.5
24,2026-09-23 21:46:34,819.20,918.65,23.55,-0.08,0.01,1.16,3.2,5.2,-0.9,350.7,4.85,-0.1,-0.5
25,2026-09-23 21:46:34,819.17,918.65,23.54,-0.08,0.01,1.16,3.2,5.0,-0.9,351.5,4.84,-0.2,-1.0
26,2026-09-23 21:46:34,819.22,918.65,23.55,-0.09,0.01,1.16,2.9,4.9,-0.6,351.3,4.85,-0.2,-1.0
27,2026-09-23 21:46:34,819.12,918.66,23.55,-0.08,0.01,1.17,2.9,5.1,-0.9,351.8,4.85,0.0,0.0
28,2026-09-23 21:46:35,819.24,918.64,23.55,-0.09,0.00,1.16,2.8,5.0,-1.0,351.0,4.84,-0.4,-1.9
29,2026-09-23 21:46:35,819.25,918.64,23.54,-0.09,0.00,1.16,3.0,5.2,-0.8,350.9,4.84,-0.5,-2.4
30,2026-09-23 21:46:35,819.13,918.66,23.56,-0.09,0.01,1.15,3.0,4.7,-0.8,351.2,4.84,0.1,0.5
31,2026-09-23 21:46:35,819.18,918.65,23.55,-0.08,0.01,1.16,2.9,5.1,-0.8,351.7,4.85,-0.2,-1.0
32,2026-09-23 21:46:35,819.14,918.65,23.55,-0.09,0.01,1.16,2.8,5.0,-0.8,351.4,4.85,0.0,0.0
33,2026-09-23 21:46:36,819.15,918.65,23.55,-0.09,0.00,1.16,2.8,5.1,-1.0,351.1,4.84,-0.4,-1.9
34,2026-09-23 21:46:36,819.15,918.65,23.55,-0.09,0.01,1.16,3.0,5.4,-0.5,350.5,4.85,-0.4,-1.9
35,2026-09-23 21:46:36,819.09,918.66,23.55,-0.09,0.01,1.16,3.1,5.2,-0.7,350.8,4.84,-0.3,-1.5
36,2026-09-23 21:46:36,819.17,918.65,23.56,-0.08,0.00,1.16,3.1,5.3,-0.9,351.1,4.85,-0.2,-1.0
37,2026-09-23 21:46:37,819.16,918.65,23.55,-0.08,0.01,1.16,3.1,5.4,-0.6,351.3,4.84,0.0,0.0
38,2026-09-23 21:46:37,819.09,918.66,23.56,-0.09,0.01,1.16,2.8,5.4,-0.9,352.0,4.85,-0.2,-1.0
39,2026-09-23 21:46:37,819.21,918.65,23.54,-0.08,0.01,1.16,2.9,5.3,-0.7,351.4,4.84,-0.1,-0.5
40,2026-09-23 21:46:37,819.14,918.65,23.55,-0.09,0.00,1.16,3.2,4.9,-1.1,351.8,4.85,-0.4,-1.9
41,2026-09-23 21:46:38,819.19,918.65,23.55,-0.09,0.01,1.16,2.7,5.2,-0.8,351.1,4.84,-0.3,-1.5
42,2026-09-23 21:46:38,819.19,918.65,23.54,-0.09,0.01,1.16,3.0,5.2,-0.9,350.9,4.85,-0.1,-0.5
43,2026-09-23 21:46:38,819.13,918.66,23.56,-0.09,0.01,1.16,3.1,5.1,-0.5,351.5,4.84,-0.2,-1.0
44,2026-09-23 21:46:38,819.17,918.65,23.54,-0.09,0.01,1.16,2.9,5.0,-0.9,350.6,4.85,-0.3,-1.5
45,2026-09-23 21:46:38,819.17,918.65,23.54,-0.09,0.00,1.16,2.9,5.0,-0.9,351.8,4.84,-0.2,-1.0
46,2026-09-23 21:46:39,819.16,918.65,23.55,-0.08,0.00,1.16,3.0,4.9,-0.6,351.3,4.84,-0.4,-1.9
47,2026-09-23 21:46:39,819.18,918.65,23.54,-0.08,0.01,1.16,2.9,5.1,-0.8,351.3,4.84,-0.2,-1.0
48,2026-09-23 21:46:39,819.13,918.66,23.54,-0.08,0.01,1.16,2.9,5.2,-0.8,350.7,4.85,-0.1,-0.5
49,2026-09-23 21:46:39,819.14,918.65,23.55,-0.08,0.01,1.16,2.9,4.9,-1.0,351.4,4.85,0.0,0.0
50,2026-09-23 21:46:40,819.12,918.66,23.56,-0.09,0.00,1.16,2.9,4.7,-0.8,350.4,4.85,-0.3,-1.5
51,2026-09-23 21:46:40,819.20,918.65,23.54,-0.09,0.01,1.16,3.1,4.9,-0.8,350.3,4.84,-0.2,-1.0
52,2026-09-23 21:46:40,819.02,918.67,23.56,-0.08,0.01,1.16,2.9,4.9,-0.9,351.3,4.85,-0.2,-1.0
53,2026-09-23 21:46:40,819.08,918.66,23.55,-0.08,0.00,1.16,3.0,4.9,-0.6,351.1,4.84,-0.1,-0.5
54,2026-09-23 21:46:40,819.08,918.66,23.54,-0.09,0.00,1.16,2.9,5.2,-1.1,351.3,4.85,0.0,0.0
55,2026-09-23 21:46:41,819.10,918.66,23.55,-0.09,0.00,1.16,3.1,5.1,-1.1,350.6,4.84,-0.1,-0.5
56,2026-09-23 21:46:41,819.12,918.66,23.55,-0.09,0.01,1.16,2.7,5.4,-0.7,351.6,4.85,-0.3,-1.5
57,2026-09-23 21:46:41,819.13,918.66,23.55,-0.09,0.00,1.16,3.1,4.9,-0.9,352.1,4.84,-0.2,-1.0
58,2026-09-23 21:46:41,819.07,918.66,23.54,-0.08,0.00,1.16,2.9,5.0,-1.0,351.7,4.85,-0.1,-0.5
59,2026-09-23 21:46:42,819.09,918.66,23.54,-0.08,0.01,1.16,2.9,4.9,-0.9,351.4,4.84,-0.5,-2.4
60,2026-09-23 21:46:42,819.14,918.65,23.54,-0.08,0.00,1.16,2.9,5.4,-0.8,352.6,4.85,-0.1,-0.5
61,2026-09-23 21:46:42,819.08,918.66,23.54,-0.08,0.01,1.16,3.0,5.1,-0.9,351.8,4.84,-0.5,-2.4
62,2026-09-23 21:46:42,819.13,918.66,23.54,-0.09,0.01,1.16,3.2,5.3,-0.9,351.9,4.85,-0.4,-1.9
63,2026-09-23 21:46:42,819.10,918.66,23.54,-0.09,0.01,1.16,3.0,5.1,-0.9,351.6,4.84,-0.2,-1.0
64,2026-09-23 21:46:43,819.09,918.66,23.54,-0.09,0.00,1.16,3.0,4.8,-0.6,351.5,4.85,-0.3,-1.5
65,2026-09-23 21:46:43,819.17,918.65,23.55,-0.09,0.01,1.17,2.7,5.0,-0.8,351.6,4.84,-0.1,-0.5
66,2026-09-23 21:46:43,819.08,918.66,23.55,-0.09,0.01,1.16,3.0,5.2,-1.0,352.1,4.85,-0.3,-1.5
67,2026-09-23 21:46:43,819.08,918.66,23.55,-0.08,0.00,1.16,3.0,5.1,-1.1,351.7,4.84,0.0,0.0
68,2026-09-23 21:46:44,819.08,918.66,23.55,-0.09,0.00,1.16,3.3,4.8,-0.7,351.3,4.84,-0.4,-1.9
69,2026-09-23 21:46:44,819.08,918.66,23.55,-0.08,0.00,1.16,2.8,5.1,-1.0,350.3,4.84,-0.3,-1.5
70,2026-09-23 21:46:44,819.14,918.65,23.55,-0.09,0.01,1.16,3.0,5.0,-1.0,351.7,4.84,-0.2,-1.0
71,2026-09-23 21:46:44,819.11,918.66,23.55,-0.09,0.01,1.16,2.9,5.1,-0.9,351.2,4.84,-0.3,-1.5
72,2026-09-23 21:46:44,819.12,918.66,23.56,-0.09,0.01,1.16,3.0,5.0,-0.9,351.2,4.85,-0.2,-1.0
73,2026-09-23 21:46:45,819.05,918.66,23.54,-0.09,0.01,1.16,3.0,5.2,-0.8,352.3,4.85,-0.1,-0.5
74,2026-09-23 21:46:45,819.01,918.67,23.55,-0.09,0.01,1.15,3.2,4.9,-0.8,351.5,4.84,-0.4,-1.9
75,2026-09-23 21:46:45,819.11,918.66,23.56,-0.08,0.01,1.16,3.0,5.0,-1.1,352.2,4.84,0.0,0.0
76,2026-09-23 21:46:45,819.01,918.67,23.55,-0.08,0.00,1.16,3.0,4.9,-0.9,352.0,4.85,0.0,0.0
77,2026-09-23 21:46:46,818.98,918.67,23.55,-0.08,0.01,1.16,3.0,5.1,-0.9,351.0,4.84,-0.3,-1.5
78,2026-09-23 21:46:46,819.19,918.65,23.54,-0.09,0.00,1.16,3.0,4.9,-0.7,351.6,4.85,-0.2,-1.0
79,2026-09-23 21:46:46,819.07,918.66,23.55,-0.09,0.01,1.16,2.9,5.0,-0.8,351.3,4.85,-0.1,-0.5
80,2026-09-23 21:46:46,819.08,918.66,23.55,-0.08,0.01,1.16,2.8,5.1,-0.9,351.7,4.85,-0.3,-1.5
81,2026-09-23 21:46:46,819.07,918.66,23.54,-0.08,0.00,1.16,3.2,4.9,-0.7,351.1,4.85,-0.4,-1.9
82,2026-09-23 21:46:47,819.13,918.66,23.54,-0.08,0.01,1.16,2.9,5.1,-0.8,351.5,4.85,-0.3,-1.5
83,2026-09-23 21:46:47,819.07,918.66,23.55,-0.09,0.01,1.16,2.9,5.2,-0.9,352.0,4.84,0.0,0.0
84,2026-09-23 21:46:47,819.13,918.65,23.55,-0.09,0.00,1.17,3.0,4.4,-0.9,352.1,4.85,-0.3,-1.5
85,2026-09-23 21:46:47,819.09,918.66,23.55,-0.11,-0.01,1.17,2.8,5.5,1.2,352.3,4.84,-0.1,-0.5
86,2026-09-23 21:46:48,819.10,918.66,23.55,-0.09,0.00,1.15,2.9,6.0,-0.6,352.4,4.85,-0.3,-1.5
87,2026-09-23 21:46:48,819.04,918.66,23.55,-0.09,0.01,1.17,3.9,5.0,-0.6,353.8,4.84,-0.2,-1.0
88,2026-09-23 21:46:48,819.07,918.66,23.56,-0.08,0.01,1.15,2.9,5.0,-0.4,351.9,4.85,-0.3,-1.5
89,2026-09-23 21:46:48,819.15,918.65,23.56,-0.08,0.01,1.15,3.3,5.5,2.5,352.3,4.84,-0.3,-1.5
90,2026-09-23 21:46:48,819.04,918.67,23.55,-0.09,-0.00,1.15,3.0,5.7,-0.8,352.9,4.85,-0.4,-1.9
1,2026-09-23 21:49:39,819.19,918.65,23.37,-0.08,0.01,1.16,3.6,5.8,-7.4,318.0,4.84,-0.2,-1.0
2,2026-09-23 21:49:39,819.20,918.65,23.41,-0.04,0.05,1.17,1.4,5.1,11.1,354.8,4.84,-0.5,-2.4
3,2026-09-23 21:49:39,819.30,918.64,23.42,-0.08,0.00,1.16,2.9,5.4,-0.8,354.1,4.84,-0.4,-1.9
4,2026-09-23 21:49:40,819.21,918.65,23.43,-0.09,0.02,1.17,2.8,5.1,2.3,354.8,4.84,-0.3,-1.5
5,2026-09-23 21:49:40,819.29,918.64,23.41,-0.08,0.02,1.15,2.1,4.3,4.7,353.7,4.84,-0.3,-1.5
6,2026-09-23 21:49:40,819.27,918.64,23.41,-0.08,0.00,1.16,3.1,5.0,-2.9,354.6,4.85,-0.2,-1.0
7,2026-09-23 21:49:40,819.38,918.63,23.43,-0.07,0.02,1.15,2.1,6.1,8.8,353.7,4.84,-0.1,-0.5
8,2026-09-23 21:49:41,819.22,918.64,23.43,-0.09,0.01,1.15,3.0,5.7,-1.6,353.6,4.84,-0.3,-1.5
9,2026-09-23 21:49:41,819.27,918.64,23.42,-0.09,0.00,1.16,3.1,5.0,-4.1,353.8,4.84,-0.3,-1.5
10,2026-09-23 21:49:41,819.24,918.64,23.43,-0.08,-0.01,1.16,2.2,4.3,-5.8,354.1,4.84,0.0,0.0
11,2026-09-23 21:49:41,819.33,918.63,23.42,-0.08,0.01,1.16,3.0,5.2,-0.4,354.3,4.84,0.0,0.0
12,2026-09-23 21:49:41,819.24,918.64,23.43,-0.07,0.01,1.15,6.4,8.7,5.0,353.5,4.84,0.0,0.0
13,2026-09-23 21:49:42,819.32,918.63,23.43,-0.08,0.01,1.16,3.1,5.7,-0.7,353.5,4.84,-0.2,-1.0
14,2026-09-23 21:49:42,819.30,918.64,23.43,-0.09,-0.01,1.16,2.7,4.1,1.5,353.1,4.84,-0.3,-1.5
15,2026-09-23 21:49:42,819.29,918.64,23.43,-0.08,0.02,1.16,2.8,5.4,1.4,353.2,4.84,-0.1,-0.5
16,2026-09-23 21:49:42,819.28,918.64,23.43,-0.10,0.00,1.16,3.8,5.6,-6.9,352.9,4.84,0.0,0.0
17,2026-09-23 21:49:43,819.36,918.63,23.43,-0.08,0.00,1.16,2.4,5.0,-0.4,352.4,4.84,-0.1,-0.5
18,2026-09-23 21:49:43,819.36,918.63,23.43,-0.05,0.01,1.16,2.5,5.9,4.2,353.0,4.84,0.0,0.0
1,2026-09-23 22:20:11,820.25,918.53,22.28,-0.08,-0.00,1.16,2.9,5.0,-0.7,315.9,4.03,45.2,182.2
2,2026-09-23 22:20:11,820.35,918.52,22.33,-0.08,0.00,1.16,3.1,5.1,-0.9,0.2,4.04,45.4,183.2
3,2026-09-23 22:20:11,820.32,918.52,22.32,-0.08,-0.00,1.16,3.1,5.2,-0.8,0.5,4.02,46.7,187.9
4,2026-09-23 22:20:11,820.28,918.53,22.32,-0.08,-0.00,1.15,4.2,4.6,-0.7,359.9,4.02,44.0,176.7
5,2026-09-23 22:20:12,820.31,918.52,22.33,-0.08,0.00,1.16,3.2,5.2,-0.5,0.6,4.01,48.2,193.2
6,2026-09-23 22:20:12,820.31,918.52,22.33,-0.08,-0.00,1.16,2.9,5.2,-0.7,0.6,4.02,44.4,178.5
7,2026-09-23 22:20:12,820.30,918.52,22.34,-0.08,0.00,1.16,3.1,5.4,-1.1,1.5,4.02,47.0,188.8
8,2026-09-23 22:20:12,820.32,918.52,22.34,-0.08,0.00,1.15,2.8,5.1,-0.9,0.4,4.01,45.8,183.7
9,2026-09-23 22:20:12,820.34,918.52,22.32,-0.09,-0.00,1.16,2.5,5.6,-0.9,0.1,4.02,46.2,185.5
10,2026-09-23 22:20:12,820.29,918.53,22.33,-0.09,0.00,1.17,3.2,5.5,-0.9,0.5,4.04,45.3,182.8
1,2026-09-23 22:21:06,820.08,918.55,22.28,-0.09,-0.00,1.16,2.8,5.1,-0.7,312.6,4.06,45.6,185.0
2,2026-09-23 22:21:06,820.14,918.54,22.33,-0.09,-0.01,1.16,3.1,5.0,-0.9,358.0,4.06,43.5,176.6
3,2026-09-23 22:21:06,820.11,918.55,22.33,-0.08,-0.01,1.16,2.9,5.1,-0.8,359.2,4.06,46.9,190.4
4,2026-09-23 22:21:06,820.15,918.54,22.32,-0.08,-0.00,1.15,3.2,5.4,-0.8,358.4,4.06,45.8,185.8
5,2026-09-23 22:21:07,820.11,918.55,22.32,-0.09,-0.00,1.16,3.0,5.3,-0.9,357.1,4.06,48.8,197.9
6,2026-09-23 22:21:07,820.18,918.54,22.33,-0.09,-0.00,1.16,2.9,5.2,-0.9,358.4,4.06,42.4,172.1
7,2026-09-23 22:21:07,820.10,918.55,22.33,-0.09,-0.01,1.16,3.2,5.3,-0.9,358.5,4.06,46.6,189.2
8,2026-09-23 22:21:07,820.13,918.54,22.34,-0.08,-0.01,1.16,3.1,5.1,-0.9,358.1,4.06,43.6,177.0
9,2026-09-23 22:21:07,820.11,918.55,22.34,-0.09,-0.00,1.16,3.1,5.3,-1.0,358.4,4.06,45.6,185.0
10,2026-09-23 22:21:08,820.16,918.54,22.34,-0.08,-0.00,1.15,2.9,5.0,-0.7,358.4,4.06,43.2,175.4
11,2026-09-23 22:21:08,820.17,918.54,22.34,-0.09,-0.01,1.16,2.9,5.3,-0.6,357.8,4.06,46.5,188.8
12,2026-09-23 22:21:08,820.13,918.54,22.34,-0.08,-0.00,1.16,3.1,5.3,-0.5,358.0,4.06,42.1,170.9
13,2026-09-23 22:21:08,820.20,918.54,22.34,-0.08,-0.01,1.15,3.0,5.5,-1.0,357.7,4.06,46.0,186.6
14,2026-09-23 22:21:08,820.12,918.54,22.34,-0.08,-0.01,1.15,3.1,5.0,-0.9,358.0,4.06,44.8,182.1
15,2026-09-23 22:21:09,820.11,918.55,22.33,-0.09,-0.01,1.16,3.0,5.4,-0.9,357.6,4.06,49.5,201.0
16,2026-09-23 22:21:09,820.13,918.54,22.33,-0.09,-0.01,1.16,3.0,5.3,-0.8,358.7,4.06,45.1,183.1
17,2026-09-23 22:21:09,820.18,918.54,22.33,-0.09,-0.00,1.15,3.0,5.4,-0.8,358.6,4.06,46.0,186.6
18,2026-09-23 22:21:09,820.19,918.54,22.35,-0.09,-0.01,1.16,2.8,5.4,-1.0,357.8,4.06,42.2,171.5
19,2026-09-23 22:21:09,820.09,918.55,22.35,-0.08,-0.01,1.16,2.9,5.4,-0.7,358.0,4.06,46.3,187.8
20,2026-09-23 22:21:09,820.17,918.54,22.34,-0.08,-0.01,1.16,2.9,5.3,-1.0,358.3,4.06,44.3,179.9
21,2026-09-23 22:21:10,820.14,918.54,22.33,-0.09,-0.00,1.16,3.0,5.2,-1.1,358.8,4.06,47.3,192.0
22,2026-09-23 22:21:10,820.20,918.54,22.34,-0.08,-0.00,1.16,2.9,5.3,-0.8,357.6,4.06,45.1,183.1
23,2026-09-23 22:21:10,820.06,918.55,22.34,-0.09,-0.00,1.16,3.1,5.4,-0.9,357.5,4.06,46.6,189.2
24,2026-09-23 22:21:10,820.15,918.54,22.35,-0.08,-0.01,1.16,3.0,5.2,-0.7,358.3,4.06,43.2,175.4
25,2026-09-23 22:21:10,820.15,918.54,22.33,-0.08,-0.00,1.16,2.9,5.1,-1.0,358.1,4.06,44.6,180.9
26,2026-09-23 22:21:11,820.12,918.54,22.33,-0.09,-0.01,1.16,3.0,5.4,-0.7,358.4,4.06,44.3,179.9
27,2026-09-23 22:21:11,820.13,918.54,22.34,-0.08,-0.00,1.15,3.0,5.1,-0.9,358.0,4.06,48.1,195.1
28,2026-09-23 22:21:11,820.11,918.55,22.34,-0.08,-0.01,1.15,2.9,5.2,-1.0,357.8,4.06,44.5,180.7
29,2026-09-23 22:21:11,820.15,918.54,22.34,-0.09,-0.01,1.16,3.0,5.4,-0.7,358.0,4.06,49.0,198.7
30,2026-09-23 22:21:11,820.21,918.54,22.34,-0.08,-0.01,1.16,3.0,5.3,-0.9,358.0,4.06,45.7,185.5
31,2026-09-23 22:21:12,820.15,918.54,22.34,-0.09,-0.01,1.16,3.0,5.4,-1.1,358.8,4.06,45.6,185.0
32,2026-09-23 22:21:12,820.10,918.55,22.34,-0.09,-0.01,1.16,2.7,5.2,-1.1,357.8,4.06,42.8,173.8
33,2026-09-23 22:21:12,820.17,918.54,22.34,-0.09,-0.01,1.16,2.9,5.0,-0.9,357.8,4.06,46.1,187.0
34,2026-09-23 22:21:12,820.13,918.54,22.34,-0.09,-0.00,1.15,3.0,5.4,-0.7,357.7,4.06,44.5,180.7
35,2026-09-23 22:21:12,820.15,918.54,22.35,-0.08,-0.01,1.16,2.9,5.3,-0.7,358.0,4.06,47.3,191.8
36,2026-09-23 22:21:13,820.11,918.55,22.34,-0.08,-0.01,1.16,2.8,5.2,-0.9,358.0,4.04,43.0,173.9
37,2026-09-23 22:21:13,820.14,918.54,22.35,-0.09,-0.01,1.16,3.2,5.5,-0.7,358.0,4.05,46.7,189.0
38,2026-09-23 22:21:13,820.04,918.55,22.35,-0.09,-0.00,1.16,3.3,5.5,-0.9,357.9,4.06,44.5,180.5
39,2026-09-23 22:21:13,820.16,918.54,22.35,-0.09,0.00,1.16,3.6,5.6,-0.6,358.6,4.05,44.9,181.8
40,2026-09-23 22:21:13,820.10,918.55,22.34,-0.08,-0.00,1.16,3.0,5.4,-0.7,357.8,4.05,44.7,180.9
41,2026-09-23 22:21:13,820.13,918.54,22.35,-0.08,0.00,1.16,3.1,5.3,-0.9,358.4,4.05,47.2,191.3
42,2026-09-23 22:21:14,820.11,918.55,22.35,-0.08,0.01,1.18,-0.5,6.4,-1.1,358.1,4.05,42.4,171.8
43,2026-09-23 22:21:14,820.18,918.54,22.35,-0.09,-0.00,1.16,3.0,5.2,-1.1,358.1,4.05,45.2,183.0
44,2026-09-23 22:21:14,820.15,918.54,22.35,-0.08,-0.01,1.15,2.9,4.8,-0.8,358.2,4.06,44.4,180.3
45,2026-09-23 22:21:14,820.19,918.54,22.33,-0.08,-0.01,1.16,2.5,5.1,-1.0,357.5,4.06,46.8,189.8
1,2026-09-23 22:21:17,820.14,918.54,22.29,-0.09,-0.00,1.16,3.1,5.1,-1.0,311.7,4.06,47.0,190.8
2,2026-09-23 22:21:17,820.14,918.54,22.33,-0.09,-0.01,1.16,3.3,5.1,-0.7,357.9,4.06,43.5,176.6
3,2026-09-23 22:21:18,820.18,918.54,22.34,-0.08,-0.01,1.16,3.1,5.0,-0.8,358.0,4.06,48.6,197.3
4,2026-09-23 22:21:18,820.12,918.55,22.34,-0.09,-0.00,1.16,3.2,5.3,-0.8,358.3,4.06,46.4,188.6
5,2026-09-23 22:21:18,820.12,918.55,22.35,-0.08,-0.01,1.15,3.1,5.2,-0.7,357.9,4.06,49.3,200.4
6,2026-09-23 22:21:18,820.13,918.54,22.34,-0.08,-0.01,1.16,3.0,5.4,-0.7,358.2,4.06,42.6,173.0
7,2026-09-23 22:21:18,820.07,918.55,22.35,-0.08,-0.00,1.16,3.0,5.3,-1.0,357.8,4.06,47.1,191.2
8,2026-09-23 22:21:19,820.13,918.54,22.35,-0.08,-0.01,1.16,3.1,5.4,-0.7,358.5,4.06,44.6,181.3
9,2026-09-23 22:21:19,820.21,918.53,22.35,-0.09,-0.00,1.16,3.0,5.3,-0.7,358.7,4.06,46.6,189.2
10,2026-09-23 22:21:19,820.17,918.54,22.35,-0.09,-0.01,1.15,3.3,5.4,-0.8,358.3,4.06,43.0,174.8
11,2026-09-23 22:21:19,820.12,918.54,22.35,-0.08,0.00,1.16,3.2,5.6,-0.7,358.0,4.06,46.2,187.4
12,2026-09-23 22:21:19,820.05,918.55,22.35,-0.09,0.00,1.16,3.1,5.2,-0.7,358.5,4.06,42.7,173.4
13,2026-09-23 22:21:20,820.14,918.54,22.35,-0.09,0.00,1.16,2.8,5.0,-0.7,358.2,4.06,45.4,184.1
14,2026-09-23 22:21:20,820.13,918.54,22.35,-0.08,0.00,1.16,3.2,5.6,-0.9,357.9,4.06,43.9,178.2
15,2026-09-23 22:21:20,820.07,918.55,22.35,-0.08,0.00,1.16,2.6,5.4,-1.0,357.5,4.06,46.7,189.6
1,2026-09-23 22:21:22,820.18,918.54,22.29,-0.09,-0.01,1.16,3.0,5.2,-1.0,312.9,4.06,47.0,190.8
2,2026-09-23 22:21:22,820.08,918.55,22.32,-0.08,-0.01,1.16,2.9,5.5,-0.7,358.5,4.06,43.1,175.0
3,2026-09-23 22:21:23,820.13,918.54,22.33,-0.08,-0.01,1.16,2.9,5.1,-1.0,357.9,4.06,47.1,191.0
4,2026-09-23 22:21:23,820.15,918.54,22.34,-0.08,-0.01,1.16,3.3,5.2,-0.6,357.7,4.06,46.4,188.4
5,2026-09-23 22:21:23,820.17,918.54,22.35,-0.08,-0.00,1.14,3.2,5.0,-0.8,358.0,4.06,49.1,199.1
1,2026-09-23 22:23:50,819.90,918.57,22.25,-0.08,-0.00,1.16,2.6,5.5,-0.8,312.0,4.06,46.8,189.8
2,2026-09-23 22:23:51,819.77,918.58,22.28,-0.09,-0.00,1.16,3.1,5.1,-0.8,358.4,4.06,44.6,180.9
3,2026-09-23 22:23:51,819.79,918.58,22.29,-0.08,-0.00,1.16,3.2,5.3,-0.8,357.8,4.06,46.8,189.8
4,2026-09-23 22:23:51,819.81,918.58,22.28,-0.08,-0.00,1.16,3.0,5.6,-1.0,358.6,4.06,45.3,183.7
5,2026-09-23 22:23:51,819.81,918.58,22.29,-0.09,-0.00,1.16,2.8,5.1,-0.8,358.0,4.05,48.6,196.9
6,2026-09-23 22:23:51,819.83,918.58,22.29,-0.09,-0.00,1.16,3.0,5.3,-1.0,359.1,4.06,45.0,182.5
7,2026-09-23 22:23:52,819.77,918.58,22.30,-0.08,-0.00,1.16,2.8,5.5,-1.0,359.3,4.06,47.3,191.8
8,2026-09-23 22:23:52,819.82,918.58,22.30,-0.08,-0.00,1.16,3.0,5.2,-0.7,357.9,4.06,44.2,179.3
9,2026-09-23 22:23:52,819.85,918.58,22.30,-0.09,-0.00,1.16,3.0,5.4,-0.9,358.8,4.05,46.3,187.6
10,2026-09-23 22:23:52,819.79,918.58,22.28,-0.09,-0.01,1.16,2.8,5.1,-0.9,358.8,4.06,43.8,177.7
11,2026-09-23 22:23:52,819.80,918.58,22.30,-0.08,-0.00,1.15,3.0,5.4,-1.0,359.1,4.05,45.8,185.6
12,2026-09-23 22:23:53,819.80,918.58,22.30,-0.08,-0.00,1.16,2.9,5.4,-0.9,358.8,4.06,42.5,172.4
13,2026-09-23 22:23:53,819.84,918.58,22.29,-0.08,-0.00,1.16,3.1,5.2,-1.0,358.7,4.05,45.9,186.0
14,2026-09-23 22:23:53,819.82,918.58,22.31,-0.08,-0.01,1.16,3.1,5.4,-0.7,357.8,4.06,44.4,180.1
15,2026-09-23 22:23:53,819.83,918.58,22.29,-0.09,-0.01,1.16,2.9,5.4,-0.8,358.3,4.06,46.8,189.8
16,2026-09-23 22:23:53,819.75,918.59,22.30,-0.09,-0.00,1.16,3.1,5.5,-0.6,358.6,4.05,42.8,173.4
17,2026-09-23 22:23:54,819.82,918.58,22.30,-0.08,-0.00,1.15,3.1,5.5,-0.7,358.8,4.06,46.3,187.8
18,2026-09-23 22:23:54,819.78,918.58,22.30,-0.09,-0.00,1.16,3.9,5.2,-0.7,358.9,4.05,42.7,173.0
19,2026-09-23 22:23:54,819.81,918.58,22.30,-0.08,0.02,1.17,3.4,5.7,-0.8,357.9,4.04,46.8,189.3
20,2026-09-23 22:23:54,819.84,918.58,22.31,-0.09,0.00,1.18,3.3,5.2,-0.8,358.6,4.05,44.4,179.7
21,2026-09-23 22:23:54,819.76,918.59,22.30,-0.09,-0.00,1.16,3.0,5.4,-0.9,359.5,4.06,46.9,190.4
22,2026-09-23 22:23:54,819.86,918.57,22.30,-0.09,-0.00,1.17,3.8,5.5,-0.8,359.2,4.06,44.4,180.3
23,2026-09-23 22:23:55,819.76,918.59,22.30,-0.09,0.00,1.16,3.2,5.4,-0.7,358.8,4.06,47.2,191.6
24,2026-09-23 22:23:55,819.84,918.58,22.29,-0.08,-0.00,1.16,3.0,5.7,-0.8,358.8,4.06,44.9,182.3
25,2026-09-23 22:23:55,819.81,918.58,22.30,-0.09,-0.00,1.16,3.0,5.2,-1.0,0.0,4.06,45.8,185.8
1,2026-09-23 22:26:01,820.13,918.54,22.16,-0.08,-0.00,1.15,3.0,5.7,-1.0,305.0,3.96,46.5,184.0
2,2026-09-23 22:26:02,820.04,918.55,22.20,-0.08,-0.01,1.16,3.0,5.5,-0.7,357.5,3.95,42.7,168.8
3,2026-09-23 22:26:02,820.14,918.54,22.20,-0.08,-0.01,1.15,3.1,5.3,-1.0,358.0,3.96,45.9,181.8
4,2026-09-23 22:26:02,820.10,918.55,22.20,-0.09,-0.00,1.17,2.9,5.3,-0.7,358.5,3.98,44.5,176.9
5,2026-09-23 22:26:02,820.19,918.54,22.20,-0.08,-0.00,1.16,3.1,5.4,-1.1,357.7,3.98,47.2,188.0
6,2026-09-23 22:26:02,820.14,918.54,22.22,-0.08,-0.01,1.15,2.9,5.4,-0.7,357.6,4.00,44.6,178.6
7,2026-09-23 22:26:03,820.10,918.55,22.19,-0.08,-0.01,1.16,2.9,5.4,-1.0,358.6,3.98,45.7,182.1
8,2026-09-23 22:26:03,820.17,918.54,22.20,-0.08,-0.01,1.16,3.0,5.5,-0.9,358.3,3.99,45.1,180.0
9,2026-09-23 22:26:03,820.08,918.55,22.22,-0.08,-0.01,1.16,2.8,5.6,-0.6,358.6,3.98,48.3,192.2
10,2026-09-23 22:26:03,820.15,918.54,22.21,-0.08,-0.01,1.16,3.9,5.6,-0.7,358.3,4.04,46.4,187.5
11,2026-09-23 22:26:03,820.17,918.54,22.20,-0.09,-0.00,1.17,3.5,5.5,-0.7,358.3,3.97,48.8,193.8
12,2026-09-23 22:26:04,820.19,918.54,22.20,-0.08,0.00,1.16,3.0,5.2,-0.7,358.1,3.98,43.1,171.7
13,2026-09-23 22:26:04,820.10,918.55,22.22,-0.08,0.00,1.16,3.0,5.5,-0.8,358.2,3.97,46.2,183.5
14,2026-09-23 22:26:04,820.19,918.54,22.22,-0.09,0.00,1.16,3.0,5.0,-0.9,358.9,3.99,44.5,177.5
15,2026-09-23 22:26:04,820.01,918.56,22.21,-0.08,0.00,1.15,2.9,5.4,-0.8,358.3,3.99,46.7,186.2
16,2026-09-23 22:26:04,820.07,918.55,22.22,-0.07,-0.00,1.16,3.1,5.4,-0.7,358.2,3.99,44.6,178.0
17,2026-09-23 22:26:05,820.15,918.54,22.22,-0.08,-0.00,1.16,3.0,5.4,-1.0,358.5,3.96,45.4,180.0
18,2026-09-23 22:26:05,820.11,918.55,22.22,-0.08,0.00,1.16,2.8,5.5,-0.9,358.3,3.99,44.4,177.1
19,2026-09-23 22:26:05,820.14,918.54,22.22,-0.08,-0.00,1.15,2.8,5.3,-0.8,358.9,3.98,47.2,187.9
20,2026-09-23 22:26:05,820.10,918.55,22.22,-0.08,0.00,1.16,3.1,5.5,-0.7,357.8,3.99,45.7,182.3
21,2026-09-23 22:26:05,820.20,918.54,22.21,-0.08,0.00,1.16,2.9,5.5,-0.8,358.0,3.99,47.1,187.8
22,2026-09-23 22:26:05,820.20,918.54,22.21,-0.08,0.00,1.16,3.0,5.3,-1.2,357.5,4.00,44.0,176.2
23,2026-09-23 22:26:06,820.17,918.54,22.22,-0.08,0.00,1.16,3.0,5.5,-0.8,358.9,4.00,47.0,188.2
24,2026-09-23 22:26:06,820.17,918.54,22.20,-0.08,-0.00,1.16,3.3,5.8,-1.0,357.7,4.00,43.2,173.0
25,2026-09-23 22:26:06,820.06,918.55,22.21,-0.08,0.00,1.16,3.0,5.2,-0.8,358.7,3.99,45.0,179.6
26,2026-09-23 22:26:06,820.16,918.54,22.22,-0.08,-0.00,1.15,3.1,5.6,-1.0,358.9,4.01,43.0,172.3
27,2026-09-23 22:26:06,820.12,918.55,22.21,-0.08,0.00,1.16,2.9,5.3,-0.9,357.8,4.00,45.8,183.4
28,2026-09-23 22:26:07,820.15,918.54,22.22,-0.08,0.01,1.16,3.2,5.4,-0.5,357.9,4.01,45.4,182.0
29,2026-09-23 22:26:07,820.19,918.54,22.21,-0.08,0.00,1.16,2.8,5.2,-1.0,358.0,4.00,49.3,197.4
30,2026-09-23 22:26:07,820.21,918.53,22.21,-0.08,0.00,1.16,3.0,5.3,-0.7,358.2,4.01,46.6,187.0
31,2026-09-23 22:26:07,820.20,918.54,22.23,-0.09,-0.00,1.16,3.0,5.5,-0.9,357.3,4.01,47.4,190.0
32,2026-09-23 22:26:07,820.20,918.54,22.22,-0.08,-0.00,1.16,3.0,5.1,-0.6,358.6,4.02,42.6,171.1
33,2026-09-23 22:26:08,820.15,918.54,22.23,-0.08,-0.00,1.16,2.8,5.4,-0.7,357.8,4.01,45.9,184.2
34,2026-09-23 22:26:08,820.15,918.54,22.21,-0.08,-0.01,1.16,2.9,5.7,-1.1,358.0,4.02,44.3,178.3
35,2026-09-23 22:26:08,820.16,918.54,22.22,-0.08,0.00,1.15,2.9,5.4,-0.7,358.8,4.02,47.2,189.7
36,2026-09-23 22:26:08,820.14,918.54,22.22,-0.09,0.00,1.16,2.9,5.5,-0.6,357.8,4.02,43.5,175.0
37,2026-09-23 22:26:08,820.15,918.54,22.22,-0.08,-0.00,1.16,2.9,5.4,-0.9,358.6,4.02,46.7,187.7
38,2026-09-23 22:26:08,820.16,918.54,22.23,-0.09,0.00,1.16,3.1,5.5,-0.7,357.7,4.02,43.5,175.0
39,2026-09-23 22:26:09,820.19,918.54,22.22,-0.08,0.00,1.16,3.1,5.4,-0.9,358.3,4.01,47.5,190.6
40,2026-09-23 22:26:09,820.20,918.54,22.21,-0.09,0.00,1.16,3.0,5.3,-0.7,358.0,4.02,44.9,180.5
41,2026-09-23 22:26:09,820.17,918.54,22.22,-0.08,-0.00,1.16,3.0,5.4,-0.7,358.2,4.02,45.1,181.1
42,2026-09-23 22:26:09,820.06,918.55,22.22,-0.08,0.00,1.15,2.8,5.1,-0.9,358.2,4.02,43.0,172.9
43,2026-09-23 22:26:09,820.18,918.54,22.22,-0.08,0.00,1.15,3.0,5.2,-1.0,358.0,4.02,45.0,180.7
44,2026-09-23 22:26:10,820.17,918.54,22.23,-0.08,0.00,1.16,3.0,5.3,-0.5,358.9,4.02,43.9,176.7
45,2026-09-23 22:26:10,820.13,918.54,22.23,-0.08,0.00,1.16,2.9,5.4,-0.7,358.0,4.02,46.5,186.9
46,2026-09-23 22:26:10,820.20,918.54,22.23,-0.08,0.00,1.16,2.8,5.4,-0.8,357.9,4.03,44.2,178.0
47,2026-09-23 22:26:10,820.16,918.54,22.23,-0.08,0.00,1.16,2.9,5.5,-1.0,357.9,4.02,46.5,186.9
48,2026-09-23 22:26:10,820.14,918.54,22.23,-0.09,0.00,1.16,3.0,5.5,-0.7,358.3,4.02,43.1,173.4
49,2026-09-23 22:26:11,820.15,918.54,22.23,-0.09,0.00,1.16,3.0,5.6,-0.6,358.9,4.02,45.7,183.7
50,2026-09-23 22:26:11,820.13,918.54,22.23,-0.08,0.00,1.16,3.1,5.3,-0.7,358.3,4.03,44.4,178.8
51,2026-09-23 22:26:11,820.21,918.53,22.23,-0.09,-0.00,1.15,3.0,5.3,-0.7,357.6,4.02,47.3,190.1
52,2026-09-23 22:26:11,820.19,918.54,22.24,-0.09,0.00,1.16,2.9,5.2,-0.8,358.3,4.03,44.0,177.2
53,2026-09-23 22:26:11,820.15,918.54,22.23,-0.08,0.00,1.16,3.2,5.2,-0.9,358.0,4.02,47.2,189.7
54,2026-09-23 22:26:11,820.11,918.55,22.23,-0.08,0.00,1.16,3.0,5.3,-0.9,357.3,4.02,45.5,183.1
55,2026-09-23 22:26:12,820.13,918.54,22.23,-0.09,0.00,1.16,3.1,5.3,-1.0,358.0,4.02,46.8,188.1
56,2026-09-23 22:26:12,820.21,918.54,22.23,-0.09,0.00,1.16,2.9,5.4,-0.9,358.3,4.02,43.2,173.8
57,2026-09-23 22:26:12,820.14,918.54,22.24,-0.08,-0.00,1.16,3.1,5.5,-0.6,359.5,4.02,47.2,189.9
58,2026-09-23 22:26:12,820.18,918.54,22.24,-0.08,-0.00,1.16,2.7,5.3,-1.1,358.3,4.03,44.0,177.2
59,2026-09-23 22:26:12,820.20,918.54,22.23,-0.08,0.00,1.16,2.9,5.3,-0.5,358.0,4.02,45.1,181.5
60,2026-09-23 22:26:13,820.20,918.54,22.23,-0.08,0.00,1.16,3.2,5.3,-1.1,358.7,4.02,43.5,175.0
61,2026-09-23 22:26:13,820.15,918.54,22.24,-0.09,0.00,1.15,3.1,5.6,-0.7,358.3,4.02,47.0,189.1
62,2026-09-23 22:26:13,820.22,918.53,22.22,-0.08,0.00,1.16,2.9,5.2,-0.7,358.3,4.02,44.2,177.9
63,2026-09-23 22:26:13,820.08,918.55,22.23,-0.09,-0.00,1.16,3.0,5.3,-0.6,357.8,4.02,46.8,188.1
64,2026-09-23 22:26:13,820.21,918.53,22.23,-0.09,0.00,1.16,3.2,5.0,-0.7,358.7,4.03,44.9,180.9
65,2026-09-23 22:26:14,820.18,918.54,22.23,-0.08,0.01,1.16,2.9,5.4,-0.8,357.8,4.02,46.1,185.3
66,2026-09-23 22:26:14,820.13,918.54,22.23,-0.08,0.00,1.16,2.9,5.4,-1.1,358.0,4.02,43.1,173.4
67,2026-09-23 22:26:14,820.09,918.55,22.24,-0.08,-0.00,1.16,3.1,5.2,-1.1,358.3,4.02,46.8,188.3
68,2026-09-23 22:26:14,820.21,918.53,22.24,-0.08,0.00,1.16,3.1,5.4,-0.6,357.9,4.02,42.3,170.2
69,2026-09-23 22:26:14,820.24,918.53,22.24,-0.08,0.00,1.16,2.8,5.3,-0.9,358.5,4.02,45.3,182.1
70,2026-09-23 22:26:14,820.18,918.54,22.23,-0.08,-0.00,1.16,3.0,5.2,-0.7,358.8,4.02,43.6,175.4
71,2026-09-23 22:26:15,820.19,918.54,22.24,-0.08,0.01,1.15,3.0,5.6,-1.1,358.9,4.02,45.7,183.9
72,2026-09-23 22:26:15,820.19,918.54,22.24,-0.08,-0.00,1.16,2.9,5.3,-0.9,358.6,4.03,43.9,176.8
73,2026-09-23 22:26:15,820.14,918.54,22.24,-0.08,0.00,1.16,3.0,5.4,-0.8,358.7,4.02,46.2,185.9
74,2026-09-23 22:26:15,820.24,918.53,22.24,-0.08,0.01,1.16,3.2,5.3,-0.8,358.6,4.03,45.1,181.7
75,2026-09-23 22:26:15,820.19,918.54,22.25,-0.08,0.00,1.16,3.2,5.3,-0.9,358.1,4.02,46.8,188.3
76,2026-09-23 22:26:16,820.19,918.54,22.24,-0.08,0.00,1.16,2.9,5.2,-0.9,359.0,4.02,42.3,170.2
77,2026-09-23 22:26:16,820.17,918.54,22.24,-0.08,0.00,1.16,2.8,5.4,-0.9,358.0,4.02,47.3,190.3
78,2026-09-23 22:26:16,820.23,918.53,22.24,-0.08,0.00,1.16,3.1,5.0,-0.7,358.5,4.03,44.2,178.0
79,2026-09-23 22:26:16,820.19,918.54,22.24,-0.08,-0.00,1.16,3.1,5.2,-1.0,358.8,4.02,46.6,187.1
80,2026-09-23 22:26:16,820.20,918.54,22.24,-0.08,0.00,1.16,3.1,5.5,-0.8,358.6,4.02,42.9,172.5
81,2026-09-23 22:26:17,820.17,918.54,22.23,-0.09,0.00,1.16,3.1,5.3,-0.9,358.3,4.02,47.0,189.1
82,2026-09-23 22:26:17,820.21,918.53,22.23,-0.08,0.00,1.15,3.0,5.4,-0.8,358.9,4.02,44.4,178.7
83,2026-09-23 22:26:17,820.17,918.54,22.23,-0.08,-0.00,1.16,2.7,5.5,-0.8,358.0,4.02,46.8,188.1
84,2026-09-23 22:26:17,820.13,918.54,22.23,-0.08,0.00,1.16,2.9,5.4,-0.9,358.3,4.02,45.0,181.1
85,2026-09-23 22:26:17,820.18,918.54,22.23,-0.08,0.00,1.16,3.0,5.3,-0.7,357.9,4.02,46.2,185.5
86,2026-09-23 22:26:18,820.21,918.54,22.23,-0.08,-0.00,1.16,3.1,5.4,-0.9,358.1,4.02,42.7,171.7
87,2026-09-23 22:26:18,820.19,918.54,22.23,-0.08,0.00,1.16,2.9,5.5,-0.9,358.6,4.02,46.5,186.9
88,2026-09-23 22:26:18,820.23,918.53,22.23,-0.08,-0.00,1.16,3.2,5.2,-0.6,358.8,4.02,43.5,175.0
89,2026-09-23 22:26:18,820.20,918.54,22.24,-0.08,0.00,1.16,3.1,5.3,-0.9,358.4,4.01,45.4,182.1
90,2026-09-23 22:26:18,820.23,918.53,22.23,-0.08,0.00,1.16,3.0,5.3,-1.1,358.4,4.02,43.5,174.7
91,2026-09-23 22:26:18,820.14,918.54,22.24,-0.08,0.00,1.16,3.2,5.1,-1.1,358.8,4.02,47.3,190.1
92,2026-09-23 22:26:19,820.18,918.54,22.23,-0.09,0.00,1.24,2.8,5.2,-0.8,359.0,4.02,44.1,177.3
93,2026-09-23 22:26:19,820.20,918.54,22.24,-0.09,0.00,1.19,2.8,5.7,-0.8,358.6,4.02,46.1,185.1
94,2026-09-23 22:26:19,820.17,918.54,22.23,-0.08,0.00,1.16,3.2,5.4,-0.8,358.9,4.02,44.9,180.7
95,2026-09-23 22:26:19,820.15,918.54,22.24,-0.08,0.00,1.16,2.9,5.5,-0.8,357.8,4.01,46.8,187.8
96,2026-09-23 22:26:19,820.21,918.54,22.23,-0.08,0.00,1.15,3.0,5.3,-1.0,358.6,4.02,44.5,178.7
97,2026-09-23 22:26:20,820.21,918.53,22.24,-0.08,0.00,1.16,2.9,5.1,-0.7,358.7,4.01,46.6,187.0
98,2026-09-23 22:26:20,820.24,918.53,22.24,-0.08,-0.00,1.16,3.0,5.4,-0.8,358.4,4.02,44.6,179.3
99,2026-09-23 22:26:20,820.20,918.54,22.24,-0.08,0.00,1.16,2.9,5.2,-0.8,358.8,4.02,47.0,188.8
100,2026-09-23 22:26:20,820.21,918.53,22.24,-0.08,-0.00,1.15,3.0,5.2,-0.6,358.6,4.02,46.5,186.9
101,2026-09-23 22:26:20,820.16,918.54,22.23,-0.08,0.00,1.15,2.8,5.5,-0.9,358.9,4.01,46.5,186.6
102,2026-09-23 22:26:21,820.20,918.54,22.24,-0.08,0.00,1.16,3.0,5.0,-0.8,358.0,4.02,43.1,173.3
103,2026-09-23 22:26:21,820.18,918.54,22.24,-0.08,-0.00,1.16,2.9,5.6,-0.7,358.3,4.01,45.7,183.3
104,2026-09-23 22:26:21,820.23,918.53,22.24,-0.08,0.00,1.16,2.8,5.2,-0.8,358.0,4.02,44.2,177.7
105,2026-09-23 22:26:21,820.12,918.54,22.24,-0.08,-0.00,1.16,3.0,5.5,-0.8,358.0,4.02,47.3,190.1
106,2026-09-23 22:26:21,820.25,918.53,22.23,-0.08,0.01,1.16,3.2,5.0,-1.0,358.4,4.02,42.4,170.3
107,2026-09-23 22:26:22,820.24,918.53,22.24,-0.08,-0.00,1.16,3.2,5.3,-0.8,358.4,4.01,45.7,183.3
108,2026-09-23 22:26:22,820.20,918.54,22.24,-0.08,0.00,1.16,2.9,5.4,-0.8,358.1,4.02,44.2,177.5
109,2026-09-23 22:26:22,820.25,918.53,22.25,-0.08,-0.00,1.16,2.9,5.2,-1.0,359.2,4.02,47.3,190.0
110,2026-09-23 22:26:22,820.21,918.53,22.25,-0.08,0.00,1.16,3.1,5.3,-0.8,358.6,4.02,42.8,171.9
111,2026-09-23 22:26:22,820.24,918.53,22.24,-0.09,-0.00,1.16,3.2,5.0,-0.8,359.2,4.02,47.0,188.8
112,2026-09-23 22:26:22,820.16,918.54,22.25,-0.08,0.00,1.15,3.0,5.3,-0.8,359.3,4.02,44.1,177.3
113,2026-09-23 22:26:23,820.16,918.54,22.24,-0.08,0.00,1.16,3.0,5.4,-0.8,358.9,4.02,46.7,187.5
114,2026-09-23 22:26:23,820.20,918.54,22.25,-0.08,0.00,1.15,2.8,5.2,-1.0,358.3,4.02,43.7,175.7
115,2026-09-23 22:26:23,820.27,918.53,22.25,-0.08,-0.00,1.15,2.9,5.6,-0.7,358.3,4.01,45.6,182.9
116,2026-09-23 22:26:23,820.23,918.53,22.25,-0.08,-0.00,1.16,3.0,5.2,-0.8,358.4,4.02,44.7,179.9
117,2026-09-23 22:26:23,820.06,918.55,22.24,-0.08,0.00,1.16,2.9,5.7,-0.9,358.6,4.01,47.5,190.6
118,2026-09-23 22:26:24,820.21,918.54,22.24,-0.08,0.00,1.16,2.9,5.9,-0.6,358.0,4.02,47.1,189.3
119,2026-09-23 22:26:24,820.14,918.54,22.24,-0.08,0.00,1.16,2.8,5.1,-0.7,358.3,4.01,46.5,186.6
120,2026-09-23 22:26:24,820.19,918.54,22.25,-0.08,0.00,1.16,2.9,5.4,-0.7,359.2,4.02,44.0,176.9
121,2026-09-23 22:26:24,820.20,918.54,22.25,-0.09,0.00,1.16,2.9,5.4,-1.1,357.8,4.02,47.3,190.1
122,2026-09-23 22:26:24,820.26,918.53,22.24,-0.09,0.01,1.16,3.0,5.6,-0.8,357.8,4.02,44.4,178.5
123,2026-09-23 22:26:25,820.18,918.54,22.25,-0.09,0.00,1.16,3.0,5.4,-1.0,357.8,4.01,46.5,186.6
124,2026-09-23 22:26:25,820.26,918.53,22.24,-0.08,0.00,1.16,3.2,5.3,-0.7,358.7,4.02,42.8,172.1
125,2026-09-23 22:26:25,820.18,918.54,22.24,-0.08,0.00,1.16,3.0,5.4,-0.9,357.8,4.01,46.0,184.6
126,2026-09-23 22:26:25,820.17,918.54,22.25,-0.08,0.00,1.16,2.9,5.2,-0.7,358.3,4.02,44.4,178.5
127,2026-09-23 22:26:25,820.26,918.53,22.24,-0.09,0.00,1.15,3.1,5.2,-0.8,358.4,4.01,47.3,189.6
128,2026-09-23 22:26:25,820.20,918.54,22.23,-0.08,0.00,1.16,3.1,5.1,-0.8,358.0,4.02,44.9,180.5
129,2026-09-23 22:26:26,820.26,918.53,22.25,-0.08,-0.00,1.16,2.8,5.3,-0.6,358.4,4.02,49.5,198.8
130,2026-09-23 22:26:26,820.17,918.54,22.24,-0.09,0.00,1.16,2.9,5.3,-0.8,357.9,4.02,44.2,177.5
131,2026-09-23 22:26:26,820.18,918.54,22.25,-0.08,0.00,1.16,3.0,5.4,-0.8,358.4,4.02,45.8,183.9
132,2026-09-23 22:26:26,820.23,918.53,22.25,-0.08,0.00,1.15,3.1,5.3,-0.8,358.0,4.02,42.3,170.0
133,2026-09-23 22:26:26,820.24,918.53,22.25,-0.09,0.00,1.16,3.0,5.3,-0.7,358.3,4.02,46.4,186.3
134,2026-09-23 22:26:27,820.26,918.53,22.25,-0.08,-0.00,1.16,2.8,5.6,-0.9,358.0,4.02,44.2,177.9
135,2026-09-23 22:26:27,820.19,918.54,22.24,-0.08,0.00,1.16,3.1,5.5,-1.0,358.0,4.01,45.6,182.9
136,2026-09-23 22:26:27,820.27,918.53,22.25,-0.08,-0.00,1.16,2.8,5.5,-1.0,358.0,4.02,43.4,174.5
137,2026-09-23 22:26:27,820.23,918.53,22.24,-0.08,0.00,1.15,3.2,5.3,-1.1,358.3,4.01,45.6,182.9
138,2026-09-23 22:26:27,820.21,918.53,22.26,-0.08,0.00,1.16,2.9,5.4,-0.9,358.6,4.02,42.3,170.0
139,2026-09-23 22:26:28,820.24,918.53,22.26,-0.09,-0.00,1.16,3.0,5.2,-0.9,358.2,4.02,46.5,186.7
140,2026-09-23 22:26:28,820.29,918.53,22.24,-0.08,-0.00,1.17,2.9,5.1,-0.6,358.9,4.02,44.6,179.5
141,2026-09-23 22:26:28,820.23,918.53,22.24,-0.08,-0.00,1.16,2.8,5.2,-0.6,357.1,4.02,46.8,187.9
142,2026-09-23 22:26:28,820.22,918.53,22.25,-0.09,-0.00,1.15,3.0,5.6,-0.5,358.3,4.02,44.4,178.7
143,2026-09-23 22:26:28,820.24,918.53,22.25,-0.08,-0.00,1.16,2.9,5.1,-0.8,358.3,4.02,44.8,179.9
144,2026-09-23 22:26:28,820.26,918.53,22.25,-0.08,0.00,1.16,2.7,5.2,-1.0,357.7,4.02,43.8,176.3
145,2026-09-23 22:26:29,820.24,918.53,22.26,-0.09,-0.00,1.16,2.9,5.5,-0.9,358.6,4.02,45.3,181.9
146,2026-09-23 22:26:29,820.27,918.53,22.25,-0.08,0.00,1.16,3.1,5.3,-0.8,358.0,4.02,44.7,179.9
147,2026-09-23 22:26:29,820.12,918.54,22.25,-0.08,0.00,1.16,3.2,5.1,-0.8,357.8,4.01,44.7,179.3
148,2026-09-23 22:26:29,820.18,918.54,22.25,-0.08,-0.00,1.16,3.0,5.3,-1.1,357.7,4.02,44.5,178.9
149,2026-09-23 22:26:29,820.19,918.54,22.24,-0.08,0.00,1.17,2.9,5.3,-0.7,357.9,4.02,46.9,188.4
150,2026-09-23 22:26:30,820.26,918.53,22.25,-0.08,-0.00,1.16,2.9,5.3,-0.8,358.4,4.02,42.7,171.7
151,2026-09-23 22:26:30,820.22,918.53,22.25,-0.08,0.00,1.16,2.8,5.1,-0.9,358.4,4.02,47.3,190.1
152,2026-09-23 22:26:30,820.23,918.53,22.25,-0.09,0.00,1.16,3.0,5.4,-0.9,358.2,4.02,44.4,178.7
153,2026-09-23 22:26:30,820.23,918.53,22.25,-0.08,0.00,1.16,3.0,5.1,-0.7,358.3,4.01,45.7,183.3
154,2026-09-23 22:26:30,820.28,918.53,22.24,-0.08,0.00,1.17,3.1,4.9,-1.0,357.8,4.02,42.7,171.7
155,2026-09-23 22:26:31,820.27,918.53,22.25,-0.08,-0.00,1.16,3.1,5.3,-0.9,358.4,4.01,45.4,182.1
156,2026-09-23 22:26:31,820.22,918.53,22.26,-0.09,0.00,1.16,2.8,5.4,-0.8,358.0,4.02,44.9,180.7
157,2026-09-23 22:26:31,820.19,918.54,22.25,-0.08,-0.00,1.16,2.9,5.3,-1.0,358.4,4.02,47.7,191.8
158,2026-09-23 22:26:31,820.17,918.54,22.24,-0.09,0.00,1.16,2.9,5.0,-1.0,358.0,4.02,44.4,178.5
159,2026-09-23 22:26:31,820.21,918.53,22.25,-0.08,0.00,1.16,3.0,5.3,-0.7,358.3,4.01,44.9,180.1
160,2026-09-23 22:26:31,820.26,918.53,22.25,-0.09,0.00,1.16,3.0,5.3,-0.9,359.0,4.02,44.3,178.3
161,2026-09-23 22:26:32,820.23,918.53,22.24,-0.08,-0.00,1.16,2.7,5.4,-0.8,357.8,4.01,46.9,188.2
162,2026-09-23 22:26:32,820.26,918.53,22.25,-0.09,0.00,1.16,2.7,5.4,-0.6,358.6,4.02,44.5,178.9
163,2026-09-23 22:26:32,820.23,918.53,22.23,-0.08,-0.00,1.16,3.1,5.3,-0.8,358.4,4.02,45.9,184.3
164,2026-09-23 22:26:32,820.25,918.53,22.26,-0.08,0.00,1.16,2.9,5.4,-0.9,358.3,4.02,44.5,178.9
165,2026-09-23 22:26:32,820.19,918.54,22.26,-0.08,0.00,1.16,3.0,5.4,-1.0,358.3,4.02,47.4,190.5
166,2026-09-23 22:26:33,820.26,918.53,22.25,-0.08,-0.00,1.17,3.2,5.1,-0.7,358.4,4.02,44.1,177.3
167,2026-09-23 22:26:33,820.31,918.52,22.25,-0.08,0.00,1.17,2.9,5.0,-0.8,358.3,4.02,46.9,188.4
168,2026-09-23 22:26:33,820.26,918.53,22.25,-0.09,0.00,1.17,3.3,5.2,-0.8,358.4,4.02,42.7,171.7
169,2026-09-23 22:26:33,820.20,918.54,22.26,-0.09,0.00,1.16,3.0,5.2,-0.6,357.4,4.01,44.7,179.3
170,2026-09-23 22:26:33,820.27,918.53,22.24,-0.08,0.00,1.17,3.0,5.4,-0.8,358.2,4.02,44.4,178.5
171,2026-09-23 22:26:34,820.24,918.53,22.25,-0.08,0.00,1.16,2.9,5.5,-0.5,358.9,4.02,47.0,188.8
172,2026-09-23 22:26:34,820.25,918.53,22.26,-0.09,0.00,1.16,3.3,5.5,-0.9,358.1,4.02,44.7,179.7
173,2026-09-23 22:26:34,820.29,918.53,22.25,-0.08,-0.00,1.16,3.1,5.2,-0.6,357.8,4.02,46.8,187.9
174,2026-09-23 22:26:34,820.23,918.53,22.25,-0.08,0.00,1.16,3.1,5.2,-1.0,358.0,4.02,42.7,171.5
175,2026-09-23 22:26:34,820.30,918.53,22.25,-0.08,0.00,1.15,2.7,5.4,-0.9,357.7,4.01,45.7,183.3
176,2026-09-23 22:26:35,820.24,918.53,22.26,-0.08,0.00,1.15,3.2,5.4,-0.9,358.5,4.02,44.3,178.1
177,2026-09-23 22:26:35,820.22,918.53,22.25,-0.08,0.00,1.16,2.9,5.2,-0.9,358.7,4.01,49.1,197.0
178,2026-09-23 22:26:35,820.23,918.53,22.26,-0.08,0.00,1.15,3.1,5.2,-0.7,359.2,4.02,42.6,171.1
179,2026-09-23 22:26:35,820.19,918.54,22.24,-0.08,0.00,1.16,3.0,5.1,-0.7,358.6,4.01,45.0,180.5
180,2026-09-23 22:26:35,820.18,918.54,22.26,-0.09,0.00,1.16,3.0,5.1,-0.8,357.5,4.01,44.0,176.5
181,2026-09-23 22:26:35,820.27,918.53,22.24,-0.08,0.00,1.15,3.0,5.2,-0.8,358.1,4.02,47.3,190.0
182,2026-09-23 22:26:36,820.23,918.53,22.24,-0.08,0.01,1.16,3.1,5.3,-0.9,358.3,4.02,44.3,178.1
183,2026-09-23 22:26:36,820.20,918.54,22.25,-0.08,0.00,1.16,2.9,5.2,-0.8,358.5,4.01,47.0,188.6
184,2026-09-23 22:26:36,820.27,918.53,22.25,-0.08,0.00,1.16,2.8,5.2,-1.0,357.9,4.02,42.3,170.0
185,2026-09-23 22:26:36,820.20,918.54,22.24,-0.08,0.00,1.16,3.0,5.4,-0.9,357.3,4.01,46.1,184.8
186,2026-09-23 22:26:36,820.26,918.53,22.25,-0.08,0.00,1.16,3.1,5.2,-0.9,357.5,4.02,44.2,177.7
187,2026-09-23 22:26:37,820.26,918.53,22.25,-0.09,0.00,1.16,3.0,5.3,-0.9,357.7,4.02,47.3,190.0
188,2026-09-23 22:26:37,820.25,918.53,22.24,-0.09,-0.00,1.16,3.4,5.3,-0.8,357.2,4.02,42.9,172.3
189,2026-09-23 22:26:37,820.25,918.53,22.25,-0.08,-0.00,1.15,3.3,5.2,-0.6,358.0,4.01,45.5,182.4
190,2026-09-23 22:26:37,820.24,918.53,22.25,-0.08,0.00,1.16,2.9,5.3,-1.0,357.9,4.02,47.1,189.2
191,2026-09-23 22:26:37,820.26,918.53,22.26,-0.08,0.00,1.16,3.0,5.1,-0.9,358.1,4.01,46.5,186.6
192,2026-09-23 22:26:38,820.33,918.52,22.25,-0.08,0.00,1.16,3.0,5.3,-0.9,357.6,4.02,44.0,176.9
193,2026-09-23 22:26:38,820.22,918.53,22.25,-0.08,0.00,1.16,2.8,5.3,-0.6,358.6,4.01,45.1,180.9
194,2026-09-23 22:26:38,820.20,918.54,22.26,-0.08,-0.00,1.16,3.0,5.3,-0.6,357.8,4.02,44.6,179.5
195,2026-09-23 22:26:38,820.20,918.54,22.26,-0.09,0.00,1.16,2.9,5.4,-0.6,358.9,4.01,46.0,184.6
196,2026-09-23 22:26:38,820.25,918.53,22.26,-0.08,0.00,1.16,3.0,5.5,-0.8,358.6,4.02,42.8,172.1
197,2026-09-23 22:26:39,820.20,918.54,22.25,-0.08,0.00,1.16,3.1,5.1,-0.8,358.6,4.01,44.9,180.0
198,2026-09-23 22:26:39,820.26,918.53,22.24,-0.09,0.00,1.16,2.9,5.5,-0.9,359.0,4.02,44.1,177.1
199,2026-09-23 22:26:39,820.27,918.53,22.25,-0.08,-0.00,1.16,3.1,5.1,-0.8,358.8,4.02,47.1,189.2
200,2026-09-23 22:26:39,820.25,918.53,22.25,-0.08,-0.00,1.16,2.8,5.6,-0.9,358.0,4.02,42.5,170.7
201,2026-09-23 22:26:39,820.31,918.52,22.24,-0.08,0.00,1.16,2.9,5.2,-0.9,357.7,4.01,48.5,194.6
202,2026-09-23 22:26:39,820.31,918.52,22.25,-0.08,0.00,1.16,2.9,5.4,-0.7,358.2,4.02,43.4,174.3
203,2026-09-23 22:26:40,820.29,918.53,22.25,-0.08,0.00,1.16,3.2,5.6,-1.0,358.0,4.02,47.1,189.2
204,2026-09-23 22:26:40,820.26,918.53,22.25,-0.08,0.00,1.16,3.1,5.4,-0.8,357.5,4.02,44.2,177.7
205,2026-09-23 22:26:40,820.27,918.53,22.24,-0.08,0.00,1.16,2.9,5.2,-0.8,358.2,4.01,44.9,180.0
206,2026-09-23 22:26:40,820.32,918.52,22.26,-0.08,-0.00,1.15,3.0,5.1,-0.8,358.2,4.02,43.9,176.3
207,2026-09-23 22:26:40,820.28,918.53,22.26,-0.08,-0.00,1.16,3.1,5.1,-0.7,357.6,4.01,49.2,197.4
208,2026-09-23 22:26:41,820.32,918.52,22.26,-0.09,-0.00,1.16,3.0,5.4,-0.8,358.1,4.02,44.8,179.9
209,2026-09-23 22:26:41,820.31,918.52,22.26,-0.08,-0.00,1.16,2.9,5.2,-0.9,358.3,4.01,46.5,186.6
210,2026-09-23 22:26:41,820.28,918.53,22.25,-0.08,-0.00,1.16,3.0,5.0,-0.8,357.9,4.02,46.6,187.5
211,2026-09-23 22:26:41,820.29,918.53,22.25,-0.08,0.00,1.16,3.0,5.2,-0.9,358.0,4.01,45.7,183.2
212,2026-09-23 22:26:41,820.31,918.52,22.26,-0.08,0.00,1.16,3.0,5.4,-0.7,358.3,4.01,42.7,171.3
213,2026-09-23 22:26:42,820.27,918.53,22.26,-0.08,-0.00,1.16,2.9,5.1,-0.7,357.7,4.01,44.8,179.7
214,2026-09-23 22:26:42,820.31,918.52,22.25,-0.08,0.00,1.16,2.9,5.1,-1.0,358.8,4.02,44.7,179.9
215,2026-09-23 22:26:42,820.24,918.53,22.25,-0.09,-0.00,1.16,2.9,5.4,-0.9,358.0,4.01,45.8,183.7
216,2026-09-23 22:26:42,820.22,918.53,22.25,-0.08,0.00,1.16,3.1,5.3,-0.8,358.4,4.02,44.3,178.1
217,2026-09-23 22:26:42,820.16,918.54,22.25,-0.08,0.00,1.16,2.8,5.2,-0.6,358.7,4.01,47.0,188.4
218,2026-09-23 22:26:42,820.24,918.53,22.26,-0.08,-0.00,1.16,3.2,5.4,-1.0,358.1,4.02,46.6,187.1
219,2026-09-23 22:26:43,820.29,918.53,22.25,-0.08,0.00,1.16,3.2,5.3,-0.8,358.7,4.01,45.6,182.9
220,2026-09-23 22:26:43,820.21,918.53,22.25,-0.08,0.00,1.15,3.1,5.1,-0.8,357.5,4.02,42.2,169.6
221,2026-09-23 22:26:43,820.25,918.53,22.25,-0.08,-0.00,1.16,3.2,5.3,-0.9,358.6,4.02,47.2,189.6
222,2026-09-23 22:26:43,820.21,918.53,22.26,-0.09,0.00,1.15,3.2,5.3,-0.5,358.1,4.02,44.5,178.9
223,2026-09-23 22:26:43,820.24,918.53,22.25,-0.09,0.00,1.16,3.0,5.1,-0.8,358.2,4.02,47.4,190.4
224,2026-09-23 22:26:44,820.28,918.53,22.25,-0.08,-0.00,1.16,3.0,5.3,-0.8,358.2,4.02,43.1,173.1
225,2026-09-23 22:26:44,820.31,918.52,22.26,-0.09,0.01,1.16,3.0,5.2,-0.5,358.5,4.01,45.7,183.2
226,2026-09-23 22:26:44,820.29,918.53,22.25,-0.08,-0.00,1.16,3.0,5.2,-0.8,357.8,4.02,44.8,180.1
227,2026-09-23 22:26:44,820.23,918.53,22.26,-0.08,-0.00,1.16,2.9,5.2,-0.9,358.0,4.01,46.8,187.8
228,2026-09-23 22:26:44,820.34,918.52,22.25,-0.08,-0.00,1.16,3.0,5.0,-0.8,358.3,4.02,42.8,171.9
229,2026-09-23 22:26:45,820.30,918.53,22.25,-0.08,0.00,1.16,3.2,5.4,-0.7,357.8,4.02,47.3,190.0
230,2026-09-23 22:26:45,820.35,918.52,22.24,-0.08,-0.00,1.16,2.8,5.4,-1.0,358.3,4.02,42.9,172.3
231,2026-09-23 22:26:45,820.30,918.53,22.26,-0.08,0.00,1.16,3.0,5.3,-1.1,358.1,4.01,47.1,189.0
232,2026-09-23 22:26:45,820.24,918.53,22.25,-0.08,-0.00,1.16,2.9,5.1,-0.9,358.0,4.01,43.4,174.1
233,2026-09-23 22:26:45,820.23,918.53,22.25,-0.09,0.00,1.16,3.0,5.4,-0.7,358.6,4.02,46.6,187.1
234,2026-09-23 22:26:45,820.28,918.53,22.25,-0.08,0.00,1.16,2.9,5.4,-0.9,358.4,4.02,43.5,174.9
235,2026-09-23 22:26:46,820.30,918.53,22.25,-0.08,0.00,1.16,3.1,5.4,-0.8,358.4,4.02,47.2,189.6
236,2026-09-23 22:26:46,820.29,918.53,22.26,-0.08,0.00,1.16,3.0,5.1,-0.8,358.3,4.02,44.7,179.5
237,2026-09-23 22:26:46,820.29,918.53,22.25,-0.08,0.00,1.16,3.0,5.4,-0.8,358.4,4.01,45.9,184.0
238,2026-09-23 22:26:46,820.18,918.54,22.26,-0.08,0.00,1.15,2.8,5.4,-1.1,358.0,4.02,44.0,176.9
239,2026-09-23 22:26:46,820.37,918.52,22.26,-0.08,-0.00,1.17,3.0,5.1,-1.0,357.5,4.01,48.2,193.4
240,2026-09-23 22:26:47,820.25,918.53,22.26,-0.08,0.00,1.16,2.8,4.9,-0.9,357.5,4.02,43.1,173.1
241,2026-09-23 22:26:47,820.18,918.54,22.26,-0.08,0.00,1.16,2.8,5.3,-1.0,358.3,4.01,46.7,187.4
242,2026-09-23 22:26:47,820.26,918.53,22.25,-0.09,0.00,1.17,2.9,5.5,-1.2,358.4,4.02,42.2,169.5
243,2026-09-23 22:26:47,820.29,918.53,22.26,-0.08,0.00,1.16,3.1,5.6,-1.3,358.4,4.01,46.8,187.8
244,2026-09-23 22:26:47,820.30,918.53,22.26,-0.08,0.00,1.16,2.9,5.5,-0.8,358.7,4.02,44.1,177.3
245,2026-09-23 22:26:48,820.36,918.52,22.25,-0.08,-0.00,1.15,2.9,5.2,-0.5,357.9,4.01,46.4,186.2
246,2026-09-23 22:26:48,820.33,918.52,22.24,-0.08,0.01,1.17,3.0,5.3,-0.8,358.4,4.02,44.0,176.7
247,2026-09-23 22:26:48,820.37,918.52,22.27,-0.08,0.00,1.16,2.8,5.1,-1.0,358.6,4.01,44.6,178.9
248,2026-09-23 22:26:48,820.31,918.52,22.25,-0.08,0.00,1.16,2.9,5.2,-0.8,359.2,4.02,44.6,179.3
249,2026-09-23 22:26:48,820.28,918.53,22.25,-0.08,0.00,1.16,2.8,5.4,-1.2,358.5,4.01,48.8,195.6
250,2026-09-23 22:26:48,820.24,918.53,22.25,-0.08,0.00,1.16,3.2,5.3,-0.9,358.5,4.02,43.4,174.3
251,2026-09-23 22:26:49,820.20,918.54,22.26,-0.08,-0.00,1.16,2.8,5.2,-0.8,357.5,4.02,49.2,197.6
252,2026-09-23 22:26:49,820.30,918.52,22.25,-0.08,0.00,1.16,3.1,5.5,-0.9,358.0,4.02,44.5,178.9
253,2026-09-23 22:26:49,820.32,918.52,22.26,-0.08,0.00,1.16,3.0,5.2,-0.9,358.0,4.02,46.3,185.9
254,2026-09-23 22:26:49,820.25,918.53,22.25,-0.08,0.01,1.16,2.9,5.3,-0.7,358.2,4.02,42.6,171.1
255,2026-09-23 22:26:49,820.25,918.53,22.26,-0.08,0.00,1.16,3.0,5.4,-0.7,358.9,4.01,45.7,183.3
256,2026-09-23 22:26:50,820.33,918.52,22.26,-0.09,0.00,1.16,3.1,5.3,-0.8,358.6,4.02,45.0,181.1
257,2026-09-23 22:26:50,820.32,918.52,22.25,-0.09,0.00,1.16,2.9,5.4,-0.9,358.3,4.02,47.3,190.0
258,2026-09-23 22:26:50,820.30,918.53,22.26,-0.08,0.00,1.16,3.1,5.1,-1.0,357.7,4.02,44.0,176.9
259,2026-09-23 22:26:50,820.29,918.53,22.25,-0.09,0.00,1.16,3.1,5.4,-0.6,357.9,4.01,44.9,180.1
260,2026-09-23 22:26:50,820.25,918.53,22.25,-0.08,-0.00,1.16,2.9,5.3,-0.7,358.7,4.02,45.3,181.9
261,2026-09-23 22:26:51,820.31,918.52,22.26,-0.08,0.00,1.16,3.0,5.1,-0.9,358.9,4.01,48.7,195.4
262,2026-09-23 22:26:51,820.29,918.53,22.25,-0.08,0.00,1.16,3.1,5.3,-0.8,358.3,4.02,44.7,179.9
263,2026-09-23 22:26:51,820.36,918.52,22.26,-0.08,0.00,1.15,3.0,5.3,-0.8,358.9,4.01,46.3,185.8
264,2026-09-23 22:26:51,820.34,918.52,22.26,-0.08,0.00,1.16,2.9,5.2,-0.8,358.1,4.02,42.7,171.5
265,2026-09-23 22:26:51,820.31,918.52,22.25,-0.08,0.00,1.16,2.9,5.3,-0.5,358.0,4.02,46.3,185.9
266,2026-09-23 22:26:52,820.32,918.52,22.25,-0.09,0.00,1.17,3.1,5.2,-0.9,358.4,4.02,43.2,173.7
267,2026-09-23 22:26:52,820.31,918.52,22.25,-0.08,0.00,1.16,3.0,5.3,-0.8,358.2,4.02,47.3,190.0
268,2026-09-23 22:26:52,820.28,918.53,22.24,-0.08,0.00,1.15,3.1,5.4,-0.9,358.2,4.02,43.2,173.5
269,2026-09-23 22:26:52,820.31,918.52,22.25,-0.08,0.00,1.16,3.1,5.3,-0.8,358.4,4.01,44.9,180.1
270,2026-09-23 22:26:52,820.30,918.52,22.25,-0.09,-0.00,1.16,3.0,5.2,-1.0,358.6,4.02,43.9,176.5
271,2026-09-23 22:26:52,820.32,918.52,22.25,-0.08,-0.00,1.16,3.0,5.3,-0.9,357.9,4.01,48.3,193.8
272,2026-09-23 22:26:53,820.31,918.52,22.25,-0.09,0.00,1.16,3.1,5.1,-0.7,358.7,4.02,44.7,179.9
273,2026-09-23 22:26:53,820.32,918.52,22.26,-0.08,0.00,1.15,2.9,5.4,-0.9,358.4,4.01,46.9,188.2
274,2026-09-23 22:26:53,820.38,918.52,22.25,-0.08,-0.00,1.16,2.8,5.2,-0.8,358.6,4.02,42.2,169.5
275,2026-09-23 22:26:53,820.33,918.52,22.25,-0.08,0.00,1.17,3.0,5.3,-0.7,358.3,4.02,47.0,188.8
276,2026-09-23 22:26:53,820.29,918.53,22.25,-0.08,-0.00,1.16,2.8,5.1,-0.9,358.3,4.02,45.1,181.3
277,2026-09-23 22:26:54,820.29,918.53,22.26,-0.08,0.00,1.16,3.1,5.2,-0.7,358.8,4.01,48.7,195.2
278,2026-09-23 22:26:54,820.29,918.53,22.26,-0.08,-0.00,1.16,2.8,5.5,-0.9,358.6,4.02,46.6,187.1
279,2026-09-23 22:26:54,820.29,918.53,22.25,-0.08,0.00,1.16,3.1,5.3,-0.7,358.6,4.01,46.0,184.6
280,2026-09-23 22:26:54,820.33,918.52,22.25,-0.08,0.00,1.15,3.2,5.2,-0.7,358.0,4.02,43.7,175.5
281,2026-09-23 22:26:54,820.28,918.53,22.26,-0.08,-0.00,1.16,3.3,5.1,-0.9,358.7,4.02,48.7,195.6
282,2026-09-23 22:26:55,820.33,918.52,22.26,-0.09,-0.00,1.16,2.9,5.3,-0.8,358.6,4.02,43.3,173.9
283,2026-09-23 22:26:55,820.26,918.53,22.26,-0.08,-0.00,1.16,3.1,5.1,-0.9,358.9,4.01,49.1,197.0
284,2026-09-23 22:26:55,820.31,918.52,22.25,-0.08,0.00,1.16,3.2,5.3,-0.7,358.5,4.02,44.8,180.1
285,2026-09-23 22:26:55,820.24,918.53,22.26,-0.08,-0.00,1.16,3.2,5.2,-1.0,358.3,4.01,46.1,185.0
286,2026-09-23 22:26:55,820.35,918.52,22.26,-0.08,-0.00,1.16,3.0,5.2,-0.9,358.5,4.02,44.5,178.9
287,2026-09-23 22:26:55,820.37,918.52,22.26,-0.08,-0.00,1.16,3.2,5.2,-0.8,359.2,4.01,45.6,182.9
288,2026-09-23 22:26:56,820.30,918.52,22.26,-0.08,-0.00,1.16,3.0,5.2,-0.5,358.0,4.02,43.4,174.3
289,2026-09-23 22:26:56,820.30,918.53,22.25,-0.08,0.00,1.16,2.8,5.4,-0.8,358.8,4.01,47.1,189.0
290,2026-09-23 22:26:56,820.36,918.52,22.26,-0.08,0.00,1.15,3.1,5.2,-0.9,358.9,4.02,44.1,177.1
291,2026-09-23 22:26:56,820.30,918.53,22.26,-0.08,0.00,1.16,3.0,5.4,-0.7,358.3,4.01,45.6,182.9
292,2026-09-23 22:26:56,820.34,918.52,22.26,-0.08,0.00,1.16,3.0,5.4,-0.7,358.2,4.02,44.1,177.5
293,2026-09-23 22:26:57,820.30,918.53,22.26,-0.08,0.00,1.16,3.1,5.0,-0.8,358.0,4.01,45.0,180.4
294,2026-09-23 22:26:57,820.37,918.52,22.25,-0.08,0.00,1.16,3.0,5.2,-0.9,358.6,4.02,43.0,172.7
295,2026-09-23 22:26:57,820.25,918.53,22.26,-0.08,-0.00,1.16,3.0,5.5,-0.8,357.9,4.02,47.3,190.0
296,2026-09-23 22:26:57,820.33,918.52,22.25,-0.08,0.00,1.16,3.0,5.1,-0.9,358.6,4.02,42.9,172.3
297,2026-09-23 22:26:57,820.36,918.52,22.25,-0.09,-0.00,1.15,2.8,5.4,-0.8,358.3,4.01,46.2,185.2
298,2026-09-23 22:26:58,820.28,918.53,22.25,-0.08,0.00,1.16,2.9,5.2,-0.9,357.8,4.02,42.8,171.9
299,2026-09-23 22:26:58,820.29,918.53,22.26,-0.08,-0.00,1.16,3.1,5.3,-0.9,359.1,4.02,47.1,189.2
300,2026-09-23 22:26:58,820.34,918.52,22.25,-0.08,-0.00,1.16,2.9,5.4,-1.0,357.7,4.02,44.0,176.9
301,2026-09-23 22:26:58,820.31,918.52,22.25,-0.08,0.00,1.16,3.0,5.3,-0.7,358.5,4.02,46.6,187.3
302,2026-09-23 22:26:58,820.35,918.52,22.25,-0.08,-0.00,1.16,3.0,5.3,-0.8,357.6,4.02,43.8,175.9
303,2026-09-23 22:26:58,820.30,918.53,22.24,-0.08,0.00,1.16,3.1,5.2,-0.9,358.6,4.01,48.0,192.4
304,2026-09-23 22:26:59,820.28,918.53,22.24,-0.09,0.00,1.16,2.9,5.1,-0.9,357.8,4.02,45.9,184.3
305,2026-09-23 22:26:59,820.34,918.52,22.24,-0.08,0.00,1.16,2.8,5.2,-0.8,357.4,4.01,47.6,191.0
306,2026-09-23 22:26:59,820.31,918.52,22.24,-0.09,0.00,1.16,2.8,5.2,-0.7,358.1,4.02,46.8,188.1
307,2026-09-23 22:26:59,820.35,918.52,22.24,-0.08,0.00,1.16,2.9,5.2,-0.9,357.8,4.01,45.9,184.2
308,2026-09-23 22:26:59,820.35,918.52,22.24,-0.08,0.00,1.16,2.8,5.4,-0.7,358.0,4.02,43.7,175.5
309,2026-09-23 22:27:00,820.37,918.52,22.24,-0.08,0.00,1.16,2.8,5.2,-0.7,358.2,4.02,47.4,190.4
310,2026-09-23 22:27:00,820.35,918.52,22.23,-0.09,-0.00,1.16,3.1,5.4,-1.1,357.8,4.02,42.8,171.9
311,2026-09-23 22:27:00,820.26,918.53,22.23,-0.08,-0.00,1.16,3.0,5.0,-0.9,357.6,4.02,46.9,188.4
312,2026-09-23 22:27:00,820.37,918.52,22.25,-0.08,-0.00,1.16,3.0,5.1,-1.1,358.3,4.02,44.7,179.9
313,2026-09-23 22:27:00,820.36,918.52,22.23,-0.08,0.00,1.16,2.9,5.4,-0.9,358.5,4.01,45.7,183.3
314,2026-09-23 22:27:01,820.31,918.52,22.23,-0.08,0.00,1.16,3.0,5.4,-1.1,357.8,4.02,44.3,178.3
315,2026-09-23 22:27:01,820.30,918.53,22.23,-0.09,-0.00,1.15,2.7,5.0,-0.7,358.1,4.02,46.7,187.5
316,2026-09-23 22:27:01,820.39,918.52,22.23,-0.08,0.00,1.16,2.9,5.0,-0.9,358.0,4.02,43.6,175.1
317,2026-09-23 22:27:01,820.33,918.52,22.23,-0.08,0.00,1.16,2.8,5.3,-0.6,358.3,4.01,47.1,188.8
318,2026-09-23 22:27:01,820.34,918.52,22.24,-0.09,0.00,1.16,3.0,5.2,-0.7,358.0,4.02,46.5,186.7
319,2026-09-23 22:27:01,820.30,918.53,22.24,-0.08,0.00,1.16,3.1,5.0,-0.8,358.0,4.02,46.9,188.4
320,2026-09-23 22:27:02,820.33,918.52,22.24,-0.09,-0.00,1.16,2.9,5.2,-1.0,358.5,4.02,44.2,177.7
321,2026-09-23 22:27:02,820.29,918.53,22.22,-0.08,0.00,1.16,3.1,5.2,-0.6,358.1,4.01,45.7,183.2
322,2026-09-23 22:27:02,820.37,918.52,22.24,-0.08,0.00,1.16,3.0,5.4,-0.7,358.4,4.02,42.8,172.1
323,2026-09-23 22:27:02,820.37,918.52,22.22,-0.08,-0.00,1.16,2.9,5.3,-0.9,358.8,4.01,44.8,179.7
324,2026-09-23 22:27:02,820.40,918.51,22.23,-0.08,-0.00,1.16,3.1,5.1,-1.1,358.0,4.02,46.7,187.7
325,2026-09-23 22:27:03,820.37,918.52,22.23,-0.09,0.00,1.16,3.1,5.1,-0.9,358.3,4.01,47.7,191.4
326,2026-09-23 22:27:03,820.34,918.52,22.23,-0.08,0.00,1.16,3.0,5.3,-0.8,359.2,4.02,46.6,187.1
327,2026-09-23 22:27:03,820.38,918.52,22.22,-0.08,-0.00,1.16,2.8,5.2,-0.7,358.3,4.01,45.0,180.4
328,2026-09-23 22:27:03,820.40,918.51,22.23,-0.08,0.00,1.16,3.3,5.3,-0.7,359.0,4.02,45.3,182.1
329,2026-09-23 22:27:03,820.31,918.52,22.22,-0.08,0.00,1.16,3.0,5.4,-0.7,359.0,4.02,45.9,184.3
330,2026-09-23 22:27:04,820.31,918.52,22.22,-0.08,-0.00,1.16,2.9,5.0,-0.9,359.4,4.02,42.3,169.9
331,2026-09-23 22:27:04,820.29,918.53,22.23,-0.08,0.00,1.16,3.1,5.1,-0.9,357.6,4.01,44.5,178.5
332,2026-09-23 22:27:04,820.29,918.53,22.23,-0.08,0.00,1.16,3.1,5.1,-0.9,357.9,4.02,42.2,169.5
333,2026-09-23 22:27:04,820.38,918.52,22.22,-0.08,0.00,1.16,3.0,5.1,-1.0,357.4,4.01,46.3,185.8
334,2026-09-23 22:27:04,820.32,918.52,22.23,-0.09,-0.00,1.16,3.1,5.4,-0.8,358.5,4.02,44.7,179.7
335,2026-09-23 22:27:04,820.33,918.52,22.22,-0.08,-0.00,1.16,3.2,5.0,-0.6,357.7,4.01,45.3,181.7
336,2026-09-23 22:27:05,820.32,918.52,22.21,-0.08,0.00,1.16,3.0,5.4,-0.7,358.5,4.02,44.7,179.7
337,2026-09-23 22:27:05,820.35,918.52,22.22,-0.09,0.00,1.16,3.2,5.0,-0.7,358.1,4.01,47.1,189.0
338,2026-09-23 22:27:05,820.38,918.52,22.21,-0.08,0.00,1.16,3.1,5.1,-0.6,358.6,4.02,44.9,180.7
339,2026-09-23 22:27:05,820.36,918.52,22.22,-0.08,0.00,1.16,3.0,5.5,-0.7,358.1,4.01,45.8,183.7
340,2026-09-23 22:27:05,820.42,918.51,22.21,-0.09,0.00,1.16,3.0,5.2,-0.8,358.6,4.02,42.6,171.1
341,2026-09-23 22:27:06,820.40,918.51,22.21,-0.09,0.00,1.15,3.0,5.1,-0.7,358.7,4.01,44.8,179.7
342,2026-09-23 22:27:06,820.40,918.51,22.20,-0.09,0.00,1.16,3.2,5.4,-0.9,358.4,4.02,45.4,182.3
343,2026-09-23 22:27:06,820.33,918.52,22.21,-0.08,0.00,1.16,3.0,5.2,-0.8,358.0,4.01,47.5,190.4
344,2026-09-23 22:27:06,820.40,918.51,22.21,-0.08,0.00,1.17,3.1,5.2,-0.4,358.1,4.02,46.5,186.7
345,2026-09-23 22:27:06,820.38,918.52,22.20,-0.09,0.00,1.16,2.9,5.2,-0.9,358.1,4.02,49.5,198.8
346,2026-09-23 22:27:07,820.38,918.52,22.21,-0.08,0.00,1.16,3.0,5.5,-0.6,359.2,4.02,44.6,179.3
347,2026-09-23 22:27:07,820.34,918.52,22.21,-0.08,-0.00,1.16,2.8,5.1,-0.8,358.6,4.02,47.7,191.6
348,2026-09-23 22:27:07,820.29,918.53,22.21,-0.08,-0.00,1.16,2.9,5.2,-0.7,358.5,4.02,42.6,171.1
349,2026-09-23 22:27:07,820.37,918.52,22.21,-0.08,0.00,1.16,3.1,5.3,-0.9,358.3,4.01,46.7,187.4
350,2026-09-23 22:27:07,820.39,918.52,22.21,-0.08,0.01,1.16,3.0,5.2,-0.9,358.0,4.02,44.7,179.7
351,2026-09-23 22:27:08,820.34,918.52,22.21,-0.09,0.00,1.16,2.7,5.1,-0.8,358.6,4.02,47.1,189.2
352,2026-09-23 22:27:08,820.35,918.52,22.20,-0.08,0.00,1.16,3.0,5.3,-0.8,358.1,4.01,44.2,177.3
353,2026-09-23 22:27:08,820.35,918.52,22.21,-0.08,-0.00,1.17,3.0,5.2,-0.9,358.3,4.01,47.5,190.6
354,2026-09-23 22:27:08,820.39,918.52,22.21,-0.08,0.00,1.16,3.2,5.2,-0.8,358.3,4.02,45.6,183.1
355,2026-09-23 22:27:08,820.37,918.52,22.21,-0.08,0.01,1.16,2.9,5.3,-0.9,358.6,4.01,45.9,184.2
356,2026-09-23 22:27:08,820.32,918.52,22.20,-0.09,0.00,1.16,3.0,5.4,-0.7,358.9,4.02,46.4,186.5
357,2026-09-23 22:27:09,820.32,918.52,22.21,-0.08,0.00,1.16,2.9,5.3,-0.7,358.7,4.01,45.0,180.4
358,2026-09-23 22:27:09,820.37,918.52,22.20,-0.08,-0.00,1.16,2.8,5.4,-1.0,358.0,4.02,44.6,179.3
359,2026-09-23 22:27:09,820.31,918.52,22.21,-0.08,0.00,1.16,3.0,5.4,-0.7,358.6,4.02,47.1,189.2
360,2026-09-23 22:27:09,820.38,918.52,22.21,-0.09,0.00,1.16,3.0,5.2,-0.6,358.8,4.02,42.4,170.3
361,2026-09-23 22:27:09,820.40,918.51,22.21,-0.08,0.00,1.15,3.0,5.2,-0.8,358.0,4.01,47.1,189.0
362,2026-09-23 22:27:10,820.38,918.52,22.20,-0.08,0.00,1.16,2.9,5.4,-1.1,357.8,4.01,44.8,179.7
363,2026-09-23 22:27:10,820.35,918.52,22.21,-0.08,0.00,1.16,3.1,5.3,-0.8,358.9,4.01,47.7,191.2
364,2026-09-23 22:27:10,820.37,918.52,22.20,-0.08,-0.00,1.16,3.0,5.1,-0.9,358.0,4.01,46.4,186.2
365,2026-09-23 22:27:10,820.38,918.52,22.20,-0.08,0.00,1.16,3.0,5.3,-0.7,357.7,4.01,48.7,195.4
366,2026-09-23 22:27:10,820.35,918.52,22.20,-0.09,0.00,1.16,3.1,5.3,-1.0,358.2,4.02,44.3,177.9
367,2026-09-23 22:27:11,820.40,918.51,22.21,-0.09,-0.00,1.16,3.2,5.2,-0.7,357.8,4.02,47.4,190.4
368,2026-09-23 22:27:11,820.38,918.52,22.21,-0.08,0.00,1.15,3.0,5.2,-0.5,357.6,4.02,42.3,169.9
369,2026-09-23 22:27:11,820.36,918.52,22.21,-0.09,0.00,1.16,3.1,5.2,-1.0,358.1,4.01,46.4,186.0
370,2026-09-23 22:27:11,820.34,918.52,22.20,-0.08,-0.00,1.16,3.2,5.3,-0.9,358.3,4.02,44.6,179.3
371,2026-09-23 22:27:11,820.34,918.52,22.20,-0.08,0.00,1.16,3.0,5.4,-1.0,357.3,4.01,46.6,187.0
372,2026-09-23 22:27:12,820.40,918.51,22.20,-0.08,0.00,1.16,3.0,5.5,-0.8,357.2,4.02,44.5,178.9
373,2026-09-23 22:27:12,820.32,918.52,22.21,-0.08,-0.00,1.16,3.2,5.1,-0.7,358.7,4.01,47.2,189.4
374,2026-09-23 22:27:12,820.33,918.52,22.19,-0.08,0.00,1.16,3.0,5.3,-0.7,357.8,4.02,42.7,171.5
375,2026-09-23 22:27:12,820.45,918.51,22.19,-0.08,-0.00,1.16,2.9,5.4,-0.8,358.4,4.01,45.7,183.2
376,2026-09-23 22:27:12,820.30,918.52,22.20,-0.09,-0.00,1.16,3.0,5.1,-0.9,358.3,4.02,44.5,178.9
377,2026-09-23 22:27:12,820.38,918.52,22.19,-0.08,-0.00,1.16,3.1,5.3,-0.9,357.9,4.02,47.5,190.8
378,2026-09-23 22:27:13,820.35,918.52,22.20,-0.08,0.00,1.16,3.1,5.1,-0.9,357.9,4.02,44.7,179.7
379,2026-09-23 22:27:13,820.46,918.51,22.19,-0.08,0.00,1.16,2.9,5.1,-0.7,358.4,4.01,45.5,182.5
380,2026-09-23 22:27:13,820.43,918.51,22.20,-0.08,0.00,1.16,3.2,5.4,-0.8,357.6,4.02,43.2,173.5
381,2026-09-23 22:27:13,820.45,918.51,22.20,-0.08,0.00,1.16,3.0,5.1,-0.9,358.6,4.02,47.1,189.2
382,2026-09-23 22:27:13,820.34,918.52,22.19,-0.08,0.00,1.15,3.1,5.3,-0.9,358.1,4.02,46.2,185.7
383,2026-09-23 22:27:14,820.37,918.52,22.21,-0.08,0.00,1.16,2.9,5.3,-1.0,358.4,4.01,47.6,191.0
384,2026-09-23 22:27:14,820.34,918.52,22.21,-0.08,0.00,1.16,3.0,5.3,-0.5,357.6,4.02,43.6,175.1
385,2026-09-23 22:27:14,820.37,918.52,22.19,-0.08,-0.00,1.16,3.0,5.1,-1.0,358.3,4.01,45.0,180.5
386,2026-09-23 22:27:14,820.40,918.51,22.20,-0.08,0.00,1.16,3.1,5.0,-0.9,357.8,4.02,44.6,179.3
387,2026-09-23 22:27:14,820.40,918.51,22.18,-0.08,0.00,1.16,3.0,5.2,-0.8,358.8,4.02,47.3,190.0
388,2026-09-23 22:27:15,820.38,918.52,22.19,-0.08,0.00,1.16,3.1,5.5,-0.6,358.1,4.02,43.8,175.9
389,2026-09-23 22:27:15,820.40,918.51,22.19,-0.08,-0.00,1.15,3.1,5.1,-0.7,358.0,4.01,44.9,180.1
390,2026-09-23 22:27:15,820.34,918.52,22.19,-0.08,0.00,1.16,3.1,5.0,-0.6,358.4,4.02,44.6,179.3
391,2026-09-23 22:27:15,820.44,918.51,22.20,-0.08,0.00,1.16,3.3,5.2,-0.8,357.7,4.01,45.8,183.7
392,2026-09-23 22:27:15,820.42,918.51,22.19,-0.08,0.00,1.16,3.0,5.2,-1.0,358.3,4.02,44.8,180.1
393,2026-09-23 22:27:15,820.36,918.52,22.18,-0.09,0.00,1.16,2.7,5.3,-0.7,358.5,4.01,46.7,187.2
394,2026-09-23 22:27:16,820.36,918.52,22.20,-0.08,0.00,1.16,3.1,5.0,-0.9,358.1,4.02,44.0,176.7
395,2026-09-23 22:27:16,820.42,918.51,22.20,-0.08,-0.00,1.16,2.9,5.3,-1.0,358.6,4.01,45.8,183.6
396,2026-09-23 22:27:16,820.40,918.51,22.19,-0.09,0.00,1.16,2.8,5.3,-0.9,358.8,4.02,44.3,178.1
397,2026-09-23 22:27:16,820.33,918.52,22.19,-0.08,0.00,1.16,2.8,5.3,-0.9,358.8,4.01,46.3,185.8
398,2026-09-23 22:27:16,820.49,918.50,22.20,-0.08,0.00,1.16,2.9,5.1,-0.7,358.0,4.02,44.6,179.3
399,2026-09-23 22:27:17,820.35,918.52,22.20,-0.08,-0.00,1.16,2.8,5.2,-0.8,358.1,4.02,47.5,190.8
400,2026-09-23 22:27:17,820.39,918.52,22.19,-0.08,0.00,1.16,3.1,5.4,-0.7,357.7,4.01,44.7,179.3
401,2026-09-23 22:27:17,820.37,918.52,22.19,-0.08,0.00,1.16,2.7,5.2,-0.6,357.5,4.01,46.0,184.6
402,2026-09-23 22:27:17,820.39,918.52,22.18,-0.08,0.00,1.15,2.9,5.5,-0.8,358.7,4.02,43.2,173.5
403,2026-09-23 22:27:17,820.34,918.52,22.19,-0.08,0.00,1.16,2.9,5.4,-0.7,358.2,4.01,45.3,181.6
404,2026-09-23 22:27:18,820.39,918.52,22.20,-0.08,0.00,1.16,3.0,5.4,-0.8,358.2,4.02,44.2,177.7
405,2026-09-23 22:27:18,820.40,918.51,22.19,-0.09,0.00,1.16,3.1,5.1,-0.8,358.3,4.02,47.3,190.0
406,2026-09-23 22:27:18,820.42,918.51,22.19,-0.08,-0.00,1.16,3.1,5.3,-0.9,358.9,4.02,42.9,172.5
407,2026-09-23 22:27:18,820.40,918.51,22.19,-0.09,0.00,1.16,3.0,5.2,-1.0,358.3,4.01,45.6,182.8
408,2026-09-23 22:27:18,820.42,918.51,22.19,-0.08,0.00,1.16,3.0,5.1,-0.7,358.3,4.02,43.3,173.9
409,2026-09-23 22:27:19,820.39,918.52,22.19,-0.08,0.00,1.16,3.0,5.5,-0.7,358.6,4.01,46.9,188.2
410,2026-09-23 22:27:19,820.38,918.52,22.19,-0.08,-0.00,1.16,2.8,5.1,-1.0,358.7,4.02,44.4,178.5
411,2026-09-23 22:27:19,820.32,918.52,22.19,-0.08,0.01,1.16,2.9,5.6,-0.8,357.3,4.01,45.5,182.5
412,2026-09-23 22:27:19,820.40,918.51,22.19,-0.08,-0.00,1.15,2.9,5.6,-0.7,358.6,4.02,44.0,176.7
413,2026-09-23 22:27:19,820.34,918.52,22.20,-0.09,0.00,1.16,3.0,5.4,-0.8,358.6,4.01,45.4,182.0
414,2026-09-23 22:27:19,820.39,918.52,22.21,-0.08,-0.00,1.16,2.9,5.1,-0.8,358.4,4.02,44.6,179.3
415,2026-09-23 22:27:20,820.39,918.51,22.19,-0.09,0.00,1.16,3.0,5.1,-0.9,358.2,4.02,47.3,190.0
416,2026-09-23 22:27:20,820.35,918.52,22.19,-0.08,0.00,1.16,3.1,5.3,-1.0,358.3,4.02,44.3,178.1
417,2026-09-23 22:27:20,820.42,918.51,22.19,-0.08,0.00,1.16,2.9,5.3,-0.8,358.9,4.01,48.2,193.2
418,2026-09-23 22:27:20,820.30,918.52,22.19,-0.09,0.00,1.16,3.0,5.2,-1.1,358.3,4.02,46.4,186.3
419,2026-09-23 22:27:20,820.40,918.51,22.19,-0.08,0.00,1.15,3.0,5.1,-0.8,358.0,4.01,47.5,190.4
420,2026-09-23 22:27:21,820.38,918.52,22.18,-0.09,0.00,1.16,3.2,5.2,-0.9,358.0,4.02,43.7,175.5
421,2026-09-23 22:27:21,820.42,918.51,22.19,-0.09,0.00,1.16,2.8,5.2,-0.8,357.5,4.01,46.8,187.8
422,2026-09-23 22:27:21,820.44,918.51,22.19,-0.08,0.00,1.16,2.9,5.5,-0.9,358.2,4.02,43.5,174.7
423,2026-09-23 22:27:21,820.43,918.51,22.19,-0.08,0.00,1.16,3.0,5.2,-1.0,357.4,4.01,47.0,188.6
424,2026-09-23 22:27:21,820.48,918.51,22.19,-0.08,-0.00,1.16,2.9,5.2,-0.8,358.7,4.02,43.1,173.1
425,2026-09-23 22:27:22,820.49,918.50,22.18,-0.09,-0.00,1.16,2.9,5.4,-0.6,358.6,4.01,45.6,182.9
426,2026-09-23 22:27:22,820.34,918.52,22.19,-0.09,-0.00,1.16,2.8,5.5,-0.7,358.1,4.02,44.3,178.1
427,2026-09-23 22:27:22,820.34,918.52,22.19,-0.08,0.00,1.15,3.1,5.3,-0.8,358.2,4.01,47.1,188.8
428,2026-09-23 22:27:22,820.46,918.51,22.20,-0.08,-0.00,1.16,2.9,5.3,-0.8,357.6,4.01,44.9,180.1
429,2026-09-23 22:27:22,820.39,918.52,22.19,-0.08,0.00,1.16,2.8,5.4,-0.8,357.7,4.01,48.1,192.8
430,2026-09-23 22:27:22,820.38,918.52,22.20,-0.08,0.00,1.16,2.9,5.2,-0.7,358.4,4.02,46.5,186.9
431,2026-09-23 22:27:23,820.42,918.51,22.20,-0.08,0.00,1.16,3.1,5.0,-1.0,359.2,4.01,46.4,186.2
432,2026-09-23 22:27:23,820.43,918.51,22.20,-0.08,0.00,1.16,3.0,5.0,-0.8,358.9,4.02,44.3,178.1
433,2026-09-23 22:27:23,820.40,918.51,22.19,-0.08,-0.00,1.15,3.2,5.2,-0.6,357.8,4.01,44.9,180.1
434,2026-09-23 22:27:23,820.42,918.51,22.18,-0.08,0.00,1.15,2.9,5.3,-0.8,358.1,4.02,44.7,179.7
435,2026-09-23 22:27:23,820.47,918.51,22.18,-0.08,-0.00,1.15,3.0,5.5,-0.8,358.8,4.02,47.2,189.6
436,2026-09-23 22:27:24,820.40,918.51,22.19,-0.08,0.00,1.16,3.0,5.3,-0.6,357.8,4.02,44.0,176.7
437,2026-09-23 22:27:24,820.42,918.51,22.18,-0.08,-0.00,1.16,3.0,5.5,-0.7,358.9,4.01,45.7,183.3
438,2026-09-23 22:27:24,820.44,918.51,22.18,-0.09,0.00,1.16,3.1,5.3,-0.9,358.7,4.02,44.6,179.3
439,2026-09-23 22:27:24,820.42,918.51,22.18,-0.08,0.00,1.16,3.0,5.3,-0.8,357.8,4.01,46.8,187.8
440,2026-09-23 22:27:24,820.36,918.52,22.19,-0.08,-0.00,1.16,3.1,5.5,-1.0,358.4,4.02,44.8,179.9
441,2026-09-23 22:27:25,820.43,918.51,22.19,-0.08,0.00,1.16,2.9,5.3,-0.7,358.5,4.01,47.0,188.4
442,2026-09-23 22:27:25,820.44,918.51,22.19,-0.08,0.00,1.16,2.9,5.3,-0.9,357.9,4.02,43.7,175.5
443,2026-09-23 22:27:25,820.41,918.51,22.18,-0.08,0.00,1.16,3.1,5.3,-1.1,357.8,4.01,44.9,180.0
444,2026-09-23 22:27:25,820.42,918.51,22.18,-0.08,-0.00,1.16,2.8,5.2,-0.5,357.5,4.02,44.3,178.1
445,2026-09-23 22:27:25,820.38,918.52,22.19,-0.08,-0.00,1.16,3.0,5.5,-0.8,358.3,4.01,45.6,182.9
446,2026-09-23 22:27:26,820.39,918.52,22.19,-0.08,0.00,1.16,3.0,5.3,-0.7,358.0,4.02,44.4,178.5
447,2026-09-23 22:27:26,820.34,918.52,22.19,-0.09,0.00,1.16,3.0,5.4,-0.8,358.3,4.01,46.6,187.0
448,2026-09-23 22:27:26,820.40,918.51,22.19,-0.09,-0.00,1.16,3.1,5.3,-0.9,358.9,4.01,44.4,178.1
449,2026-09-23 22:27:26,820.35,918.52,22.18,-0.09,0.00,1.16,2.9,5.0,-0.7,357.3,4.02,47.5,190.8
450,2026-09-23 22:27:26,820.40,918.51,22.18,-0.08,-0.00,1.16,2.8,5.6,-0.7,358.4,4.01,44.9,180.0
451,2026-09-23 22:27:26,820.44,918.51,22.19,-0.09,0.00,1.16,3.0,5.3,-0.7,358.1,4.01,46.8,187.8
452,2026-09-23 22:27:27,820.39,918.51,22.19,-0.08,0.00,1.16,2.8,5.4,-1.0,358.9,4.02,43.2,173.5
453,2026-09-23 22:27:27,820.39,918.51,22.19,-0.08,0.00,1.16,3.0,5.1,-0.9,358.0,4.01,46.7,187.4
454,2026-09-23 22:27:27,820.38,918.52,22.18,-0.08,0.00,1.16,3.2,5.2,-0.8,358.4,4.02,44.8,180.1
455,2026-09-23 22:27:27,820.42,918.51,22.19,-0.08,0.00,1.15,2.8,5.2,-0.8,358.1,4.01,46.9,188.2
456,2026-09-23 22:27:27,820.44,918.51,22.18,-0.08,-0.00,1.16,3.2,5.3,-0.8,358.6,4.02,43.6,175.1
457,2026-09-23 22:27:28,820.41,918.51,22.18,-0.08,0.00,1.16,3.1,5.4,-0.5,358.3,4.01,46.6,187.0
458,2026-09-23 22:27:28,820.41,918.51,22.19,-0.08,0.00,1.16,3.1,5.2,-0.9,357.9,4.02,44.5,178.9
459,2026-09-23 22:27:28,820.39,918.52,22.18,-0.08,-0.00,1.16,3.0,5.3,-0.7,359.1,4.01,45.5,182.5
460,2026-09-23 22:27:28,820.42,918.51,22.19,-0.08,0.00,1.16,3.1,5.4,-0.6,358.4,4.01,45.7,183.3
461,2026-09-23 22:27:28,820.45,918.51,22.18,-0.08,0.00,1.16,3.2,5.1,-0.8,359.1,4.01,46.6,187.0
462,2026-09-23 22:27:29,820.35,918.52,22.19,-0.08,0.00,1.16,2.9,5.1,-0.8,358.0,4.02,44.5,179.1
463,2026-09-23 22:27:29,820.40,918.51,22.19,-0.08,0.00,1.16,3.1,5.0,-0.7,358.1,4.02,46.7,187.5
464,2026-09-23 22:27:29,820.41,918.51,22.19,-0.08,-0.00,1.16,3.3,5.4,-0.9,358.4,4.02,43.1,173.1
465,2026-09-23 22:27:29,820.37,918.52,22.18,-0.08,0.00,1.16,2.9,5.4,-0.8,357.8,4.01,46.7,187.4
466,2026-09-23 22:27:29,820.44,918.51,22.18,-0.09,0.00,1.16,3.0,5.2,-0.8,358.4,4.02,45.1,181.5
467,2026-09-23 22:27:29,820.42,918.51,22.19,-0.09,-0.00,1.17,3.0,5.2,-0.7,358.9,4.00,48.7,195.0
468,2026-09-23 22:27:30,820.46,918.51,22.19,-0.08,0.00,1.16,3.1,5.3,-1.2,358.7,4.02,45.1,181.1
469,2026-09-23 22:27:30,820.46,918.51,22.18,-0.08,-0.00,1.16,3.2,5.2,-0.8,358.9,4.01,47.2,189.2
470,2026-09-23 22:27:30,820.42,918.51,22.18,-0.09,0.00,1.16,2.7,5.5,-0.7,358.7,4.02,44.8,179.9
471,2026-09-23 22:27:30,820.44,918.51,22.18,-0.08,0.00,1.16,2.8,5.3,-0.8,357.6,4.01,46.9,188.2
472,2026-09-23 22:27:30,820.42,918.51,22.19,-0.08,-0.00,1.16,3.1,5.2,-0.8,358.1,4.02,42.5,170.7
473,2026-09-23 22:27:31,820.46,918.51,22.18,-0.08,-0.00,1.16,2.9,5.2,-0.9,358.1,4.01,46.8,187.8
474,2026-09-23 22:27:31,820.44,918.51,22.18,-0.08,0.00,1.16,3.0,5.2,-0.8,358.8,4.02,43.3,173.9
475,2026-09-23 22:27:31,820.42,918.51,22.18,-0.09,0.00,1.15,3.2,5.2,-0.9,357.8,4.01,45.1,180.9
476,2026-09-23 22:27:31,820.40,918.51,22.18,-0.08,-0.00,1.16,3.1,5.3,-0.9,358.7,4.02,45.7,183.7
477,2026-09-23 22:27:31,820.41,918.51,22.18,-0.08,0.00,1.16,2.9,5.5,-0.7,357.6,4.01,46.7,187.4
478,2026-09-23 22:27:32,820.44,918.51,22.18,-0.09,0.00,1.16,2.9,5.1,-0.5,357.9,4.02,43.8,175.9
479,2026-09-23 22:27:32,820.38,918.52,22.18,-0.08,0.00,1.16,2.9,5.1,-0.9,358.1,4.01,47.4,190.0
480,2026-09-23 22:27:32,820.36,918.52,22.19,-0.08,0.00,1.15,3.0,5.3,-0.8,358.6,4.02,43.6,175.1
481,2026-09-23 22:27:32,820.37,918.52,22.18,-0.08,0.00,1.16,3.4,5.2,-1.0,358.1,4.02,47.1,189.2
482,2026-09-23 22:27:32,820.40,918.51,22.18,-0.08,-0.00,1.16,3.0,5.2,-0.9,357.7,4.02,44.3,177.9
483,2026-09-23 22:27:32,820.43,918.51,22.19,-0.08,-0.00,1.16,3.1,5.5,-0.9,358.6,4.01,46.9,188.2
484,2026-09-23 22:27:33,820.42,918.51,22.20,-0.08,0.00,1.16,2.8,5.2,-0.9,358.0,4.01,43.0,172.5
485,2026-09-23 22:27:33,820.36,918.52,22.18,-0.08,0.00,1.16,2.9,5.4,-0.8,358.8,4.01,46.7,187.4
486,2026-09-23 22:27:33,820.48,918.50,22.18,-0.08,0.00,1.16,3.0,5.3,-1.0,359.2,4.02,46.4,186.3
487,2026-09-23 22:27:33,820.44,918.51,22.18,-0.08,0.00,1.16,2.8,5.3,-0.9,359.4,4.01,47.1,189.0
488,2026-09-23 22:27:33,820.32,918.52,22.18,-0.08,0.00,1.16,2.9,5.4,-0.8,358.9,4.02,45.3,182.1
489,2026-09-23 22:27:34,820.44,918.51,22.18,-0.08,-0.00,1.16,2.9,4.9,-0.8,357.2,4.01,46.8,187.8
490,2026-09-23 22:27:34,820.43,918.51,22.18,-0.09,0.00,1.16,2.9,5.3,-0.7,358.2,4.01,42.3,169.7
491,2026-09-23 22:27:34,820.49,918.50,22.18,-0.09,0.00,1.16,3.1,5.1,-0.7,357.6,4.01,46.7,187.4
492,2026-09-23 22:27:34,820.42,918.51,22.17,-0.08,0.00,1.16,2.9,5.3,-0.8,357.5,4.02,43.7,175.7
493,2026-09-23 22:27:34,820.42,918.51,22.18,-0.09,0.00,1.16,3.0,5.3,-0.8,357.8,4.01,48.1,192.8
494,2026-09-23 22:27:35,820.51,918.50,22.18,-0.08,0.00,1.16,2.9,5.4,-0.9,358.6,4.02,44.2,177.7
495,2026-09-23 22:27:35,820.35,918.52,22.19,-0.08,-0.01,1.16,3.1,5.2,-0.9,358.1,4.01,45.0,180.5
496,2026-09-23 22:27:35,820.35,918.52,22.18,-0.08,0.00,1.16,3.0,5.3,-1.0,358.7,4.02,44.5,178.7
497,2026-09-23 22:27:35,820.49,918.50,22.18,-0.08,-0.00,1.16,2.9,5.2,-1.0,359.2,4.02,47.1,189.2
498,2026-09-23 22:27:35,820.38,918.52,22.19,-0.08,0.00,1.16,2.9,5.1,-0.6,358.4,4.02,43.0,172.7
499,2026-09-23 22:27:35,820.40,918.51,22.19,-0.09,0.00,1.16,3.1,5.1,-0.9,358.4,4.01,47.1,189.0
500,2026-09-23 22:27:36,820.44,918.51,22.18,-0.08,0.00,1.16,2.9,5.2,-0.8,358.3,4.02,45.4,182.5
501,2026-09-23 22:27:36,820.40,918.51,22.19,-0.09,-0.00,1.15,3.2,5.2,-0.8,358.3,4.01,44.8,179.6
502,2026-09-23 22:27:36,820.49,918.50,22.18,-0.08,0.00,1.15,3.0,5.2,-0.5,357.8,4.02,45.5,182.9
503,2026-09-23 22:27:36,820.46,918.51,22.19,-0.09,0.00,1.15,3.0,5.2,-0.5,357.7,4.01,45.3,181.6
504,2026-09-23 22:27:36,820.41,918.51,22.18,-0.08,0.00,1.16,2.8,5.1,-0.8,357.7,4.02,44.3,178.1
505,2026-09-23 22:27:37,820.44,918.51,22.19,-0.08,0.00,1.16,3.0,5.1,-0.8,358.2,4.02,46.9,188.4
506,2026-09-23 22:27:37,820.35,918.52,22.18,-0.08,0.00,1.15,3.0,4.9,-0.9,358.3,4.01,42.8,171.7
507,2026-09-23 22:27:37,820.42,918.51,22.18,-0.08,0.00,1.16,3.1,5.3,-0.7,357.8,4.02,47.2,189.6
508,2026-09-23 22:27:37,820.41,918.51,22.19,-0.08,0.00,1.16,3.0,5.2,-0.8,358.6,4.02,44.2,177.5
509,2026-09-23 22:27:37,820.42,918.51,22.19,-0.08,-0.00,1.16,3.1,5.2,-0.9,358.7,4.01,44.7,179.3
510,2026-09-23 22:27:38,820.43,918.51,22.19,-0.09,-0.00,1.16,3.1,5.3,-0.9,358.7,4.02,44.2,177.7
511,2026-09-23 22:27:38,820.44,918.51,22.19,-0.08,0.00,1.15,3.2,5.1,-0.7,357.8,4.01,45.6,182.9
512,2026-09-23 22:27:38,820.41,918.51,22.19,-0.09,0.00,1.16,3.0,5.1,-1.0,358.3,4.02,44.4,178.5
513,2026-09-23 22:27:38,820.42,918.51,22.19,-0.08,0.00,1.15,2.9,5.3,-0.8,358.1,4.01,46.6,186.8
514,2026-09-23 22:27:38,820.50,918.50,22.19,-0.09,0.00,1.16,3.1,5.0,-0.8,358.4,4.02,46.3,186.3
515,2026-09-23 22:27:39,820.44,918.51,22.19,-0.08,0.00,1.16,2.9,5.3,-0.8,358.3,4.01,46.6,187.0
516,2026-09-23 22:27:39,820.48,918.51,22.19,-0.08,-0.00,1.15,3.1,5.2,-0.8,358.3,4.02,44.3,178.1
517,2026-09-23 22:27:39,820.44,918.51,22.20,-0.08,0.00,1.15,2.9,5.2,-1.0,357.5,4.01,47.0,188.4
518,2026-09-23 22:27:39,820.38,918.52,22.18,-0.08,0.00,1.16,3.1,5.0,-0.7,358.1,4.02,44.6,179.3
519,2026-09-23 22:27:39,820.49,918.50,22.19,-0.08,0.00,1.16,2.9,5.4,-1.0,358.2,4.01,46.0,184.4
520,2026-09-23 22:27:39,820.44,918.51,22.18,-0.09,0.00,1.15,3.2,5.0,-0.8,358.6,4.02,44.4,178.5
521,2026-09-23 22:27:40,820.41,918.51,22.19,-0.08,0.00,1.16,2.9,5.4,-0.8,358.9,4.02,46.2,185.5
522,2026-09-23 22:27:40,820.45,918.51,22.20,-0.09,0.00,1.16,2.9,5.3,-0.7,358.0,4.02,44.3,178.1
523,2026-09-23 22:27:40,820.51,918.50,22.19,-0.08,0.00,1.16,3.2,5.2,-0.9,358.4,4.01,46.6,186.8
524,2026-09-23 22:27:40,820.39,918.52,22.20,-0.08,0.00,1.16,3.1,5.0,-0.9,358.4,4.02,45.6,183.3
525,2026-09-23 22:27:40,820.42,918.51,22.18,-0.08,0.00,1.16,3.1,5.2,-0.9,357.9,4.01,46.0,184.6
526,2026-09-23 22:27:41,820.45,918.51,22.19,-0.08,0.00,1.16,3.2,5.1,-1.0,358.6,4.02,43.1,173.1
527,2026-09-23 22:27:41,820.36,918.52,22.19,-0.08,0.00,1.16,2.9,5.3,-0.8,358.8,4.00,47.1,188.6
528,2026-09-23 22:27:41,820.43,918.51,22.19,-0.08,-0.00,1.16,3.0,5.4,-0.6,358.8,4.01,45.7,183.3
529,2026-09-23 22:27:41,820.45,918.51,22.19,-0.09,-0.00,1.15,2.7,5.5,-0.9,358.8,4.02,47.2,189.6
530,2026-09-23 22:27:41,820.38,918.52,22.20,-0.08,-0.00,1.16,2.9,5.2,-0.7,358.1,4.02,42.6,171.1
531,2026-09-23 22:27:42,820.41,918.51,22.19,-0.08,0.00,1.16,3.1,5.3,-1.0,358.5,4.02,47.0,188.8
532,2026-09-23 22:27:42,820.43,918.51,22.19,-0.08,0.00,1.16,2.9,5.1,-0.7,358.5,4.02,44.6,179.3
533,2026-09-23 22:27:42,820.40,918.51,22.19,-0.09,0.00,1.16,3.0,5.0,-0.9,358.1,4.01,47.3,189.8
534,2026-09-23 22:27:42,820.42,918.51,22.19,-0.08,0.00,1.16,2.7,5.2,-0.8,359.6,4.02,43.9,176.5
535,2026-09-23 22:27:42,820.44,918.51,22.20,-0.08,0.00,1.17,2.9,5.2,-0.9,357.8,4.01,44.7,179.2
536,2026-09-23 22:27:42,820.43,918.51,22.19,-0.08,0.00,1.16,3.1,5.4,-0.8,358.4,4.02,45.9,184.5
537,2026-09-23 22:27:43,820.49,918.50,22.19,-0.08,0.00,1.16,3.1,5.2,-0.9,359.0,4.01,46.9,188.0
538,2026-09-23 22:27:43,820.46,918.51,22.20,-0.08,0.00,1.16,3.0,5.5,-0.7,358.2,4.02,45.0,180.9
539,2026-09-23 22:27:43,820.38,918.52,22.19,-0.09,-0.00,1.16,3.1,5.4,-0.9,358.4,4.01,45.6,182.9
540,2026-09-23 22:27:43,820.47,918.51,22.19,-0.08,0.00,1.16,3.0,5.1,-0.6,358.1,4.02,43.8,175.9
541,2026-09-23 22:27:43,820.45,918.51,22.19,-0.08,0.00,1.16,2.9,5.3,-0.8,358.3,4.02,47.1,189.2
542,2026-09-23 22:27:44,820.47,918.51,22.19,-0.08,-0.00,1.16,3.2,5.3,-0.8,358.1,4.02,44.6,179.3
543,2026-09-23 22:27:44,820.50,918.50,22.20,-0.09,0.00,1.16,3.2,5.2,-0.8,358.1,4.02,47.6,191.2
544,2026-09-23 22:27:44,820.47,918.51,22.19,-0.08,0.00,1.16,2.9,5.3,-0.9,358.3,4.01,43.0,172.5
545,2026-09-23 22:27:44,820.48,918.51,22.19,-0.09,-0.00,1.16,3.1,5.1,-0.8,357.8,4.00,46.5,186.2
546,2026-09-23 22:27:44,820.49,918.50,22.19,-0.08,0.00,1.16,3.0,5.0,-0.7,358.7,4.01,44.6,178.9
547,2026-09-23 22:27:45,820.52,918.50,22.19,-0.09,0.00,1.16,3.0,5.1,-0.8,358.3,4.02,47.0,188.8
548,2026-09-23 22:27:45,820.48,918.51,22.19,-0.08,0.00,1.16,3.1,5.3,-0.7,359.2,4.02,42.2,169.5
549,2026-09-23 22:27:45,820.47,918.51,22.20,-0.08,-0.00,1.16,3.1,5.1,-0.8,358.0,4.01,46.0,184.6
550,2026-09-23 22:27:45,820.43,918.51,22.19,-0.09,-0.00,1.15,2.9,5.3,-0.7,358.6,4.02,44.3,178.1
551,2026-09-23 22:27:45,820.47,918.51,22.19,-0.08,0.00,1.17,3.0,5.3,-0.9,357.8,4.01,46.1,185.0
552,2026-09-23 22:27:46,820.50,918.50,22.19,-0.09,-0.00,1.16,3.2,5.3,-0.8,358.0,4.02,42.8,171.9
553,2026-09-23 22:27:46,820.46,918.51,22.20,-0.08,0.00,1.16,3.0,5.3,-0.9,358.3,4.01,46.8,187.8
554,2026-09-23 22:27:46,820.49,918.50,22.18,-0.09,0.00,1.16,3.0,5.1,-0.7,358.4,4.02,42.9,172.3
555,2026-09-23 22:27:46,820.45,918.51,22.19,-0.08,0.01,1.16,3.0,5.1,-0.7,358.4,4.01,45.0,180.4
556,2026-09-23 22:27:46,820.41,918.51,22.20,-0.08,0.00,1.16,3.1,4.9,-0.8,358.4,4.02,44.5,178.7
557,2026-09-23 22:27:46,820.51,918.50,22.19,-0.09,0.00,1.16,3.1,5.1,-0.9,358.1,4.01,46.0,184.6
558,2026-09-23 22:27:47,820.46,918.51,22.18,-0.08,0.00,1.15,3.1,5.3,-0.9,358.4,4.02,44.9,180.7
559,2026-09-23 22:27:47,820.42,918.51,22.18,-0.08,0.00,1.16,3.2,5.2,-0.7,358.6,4.01,45.3,181.6
560,2026-09-23 22:27:47,820.43,918.51,22.17,-0.08,0.00,1.16,3.1,5.2,-0.9,359.2,4.01,43.6,174.9
561,2026-09-23 22:27:47,820.49,918.50,22.19,-0.08,0.00,1.16,3.0,5.2,-0.6,358.4,4.01,46.5,186.4
562,2026-09-23 22:27:47,820.49,918.50,22.18,-0.08,-0.00,1.16,3.0,5.1,-1.1,358.6,4.02,42.4,170.3
563,2026-09-23 22:27:48,820.43,918.51,22.18,-0.08,0.00,1.16,3.0,5.4,-0.7,358.6,4.02,46.9,188.4
564,2026-09-23 22:27:48,820.47,918.51,22.18,-0.08,0.00,1.15,3.1,5.5,-0.8,358.2,4.02,44.3,178.1
565,2026-09-23 22:27:48,820.39,918.52,22.18,-0.08,-0.00,1.16,3.0,5.0,-0.9,358.6,4.01,45.5,182.5
566,2026-09-23 22:27:48,820.35,918.52,22.18,-0.09,0.00,1.16,3.1,5.4,-0.8,358.2,4.02,45.6,183.1
567,2026-09-23 22:27:48,820.51,918.50,22.18,-0.08,0.00,1.16,3.2,5.2,-0.9,358.6,4.01,47.1,189.0
568,2026-09-23 22:27:49,820.42,918.51,22.18,-0.08,0.00,1.16,3.0,5.2,-0.7,358.3,4.02,42.6,171.1
569,2026-09-23 22:27:49,820.46,918.51,22.18,-0.09,-0.00,1.16,3.0,5.5,-0.6,358.9,4.01,46.9,188.2
570,2026-09-23 22:27:49,820.44,918.51,22.18,-0.08,-0.00,1.16,3.0,5.2,-0.7,358.9,4.02,44.5,178.9
571,2026-09-23 22:27:49,820.36,918.52,22.19,-0.08,0.00,1.16,2.8,5.3,-0.9,358.3,4.01,46.8,187.8
572,2026-09-23 22:27:49,820.51,918.50,22.17,-0.08,0.00,1.16,2.9,5.2,-0.9,358.0,4.02,43.8,175.9
573,2026-09-23 22:27:49,820.52,918.50,22.17,-0.08,0.00,1.16,3.0,5.4,-0.8,358.8,4.01,45.9,184.2
574,2026-09-23 22:27:50,820.44,918.51,22.17,-0.08,0.00,1.16,2.9,5.3,-0.7,358.6,4.02,45.2,181.5
575,2026-09-23 22:27:50,820.42,918.51,22.17,-0.08,-0.00,1.16,3.1,5.4,-1.0,357.7,4.01,45.7,183.3
576,2026-09-23 22:27:50,820.44,918.51,22.18,-0.08,0.00,1.16,3.0,5.5,-0.9,359.1,4.02,44.6,179.3
577,2026-09-23 22:27:50,820.52,918.50,22.17,-0.08,-0.00,1.17,2.9,4.8,-0.8,358.5,4.01,45.7,183.3
578,2026-09-23 22:27:50,820.52,918.50,22.17,-0.07,0.00,1.13,3.3,5.5,-0.7,358.0,4.02,43.8,175.9
579,2026-09-23 22:27:51,820.54,918.50,22.18,-0.08,0.00,1.15,2.9,5.1,-1.1,358.6,4.02,46.9,188.4
580,2026-09-23 22:27:51,820.48,918.51,22.18,-0.08,0.01,1.16,3.0,5.1,-0.5,358.6,4.02,45.1,181.3
581,2026-09-23 22:27:51,820.42,918.51,22.18,-0.08,0.01,1.16,3.0,5.3,-0.8,357.9,4.01,45.4,182.1
582,2026-09-23 22:27:51,820.46,918.51,22.18,-0.09,0.00,1.17,2.9,4.8,-0.8,358.6,4.02,46.6,187.3
583,2026-09-23 22:27:51,820.46,918.51,22.18,-0.09,0.00,1.18,2.9,5.8,-0.9,358.8,4.01,47.3,189.8
584,2026-09-23 22:27:52,820.44,918.51,22.17,-0.08,0.00,1.17,2.9,5.1,-0.7,358.3,4.02,43.4,174.5
585,2026-09-23 22:27:52,820.51,918.50,22.19,-0.08,0.00,1.16,3.2,4.9,-0.7,359.2,4.01,44.8,179.7
586,2026-09-23 22:27:52,820.42,918.51,22.19,-0.08,0.00,1.16,3.2,5.3,-0.6,359.2,4.02,44.5,178.9
587,2026-09-23 22:27:52,820.51,918.50,22.19,-0.08,0.00,1.16,3.0,5.2,-0.8,0.0,4.01,48.5,194.4
588,2026-09-23 22:27:52,820.49,918.50,22.19,-0.08,-0.00,1.16,3.0,5.4,-1.0,358.8,4.02,43.1,173.1
589,2026-09-23 22:27:52,820.47,918.51,22.19,-0.08,0.00,1.16,2.9,5.0,-0.7,358.9,4.01,45.7,183.3
590,2026-09-23 22:27:53,820.46,918.51,22.18,-0.08,0.00,1.16,2.9,5.2,-0.8,358.0,4.02,44.2,177.7
591,2026-09-23 22:27:53,820.43,918.51,22.20,-0.08,-0.00,1.15,2.9,5.1,-1.1,358.7,4.01,45.2,181.2
592,2026-09-23 22:27:53,820.52,918.50,22.19,-0.08,0.01,1.16,3.1,5.3,-0.7,359.2,4.02,42.9,172.3
593,2026-09-23 22:27:53,820.46,918.51,22.19,-0.08,0.01,1.17,3.2,5.5,-0.9,358.1,4.01,45.1,180.8
